VAMAS Surface Chemical Analysis Standard Data Transfer Format 1988 May 4
Not Specified
Kratos Axis
Not Specified
/C=/data/KristianBB/20171211/Emil.dset
12
Casa Info Follows
5
C 1s
C 1s
F 1s
F 1s
N 1s
N 1s
O 1s
O 1s
S 2p
S 2p
MAP
REGULAR
3
6
32768
32768
1
Etch Time
s
0
0
0
0
12
Survey/2
Not Specified
2017
12
11
12
50
42
0
15
Casa Info Follows
1
Calib M = 280.836 A = 284.5 BE ADD
1
annot regions Display 0.05 0.05 RGB(0,0,0) Font(12,18,0,0,Times New Roman)

4
CASA region (*O 1s*) (*Shirley*) 946.22596 960.276 0.78 1 0 0 299 542 275 9.3 (*O 1s*) 15.9994
CASA region (*C 1s*) (*Shirley*) 1189.5918 1207.276 0.278 1 0 0 299 542 275 9.3 (*C 1s*) 12.011
CASA region (*N 1s*) (*Shirley*) 1083.9344 1089.6329 0.477 1 0 0 299 542 275 9.3 (*N 1s*) 14.0067
CASA region (*S 2p*) (*Shirley*) 1314.9172 1320.8173 0.668 1 0 0 299 542 275 9.3 (*S 2p*) 32.0648
0
   XPS     Spectrum    Lens Mode:Hybrid   Resolution:Pass energy 160   Iris(Aper):slot(Slot)
   Acqn. Time(s): 540        Sweeps: 2        Anode:Mono(Al (Mono))(150 W)   Step(meV): 500.0 
   Dwell Time(ms): 100        Charge Neutraliser :On   Acquired On :17/12/11 12:50:42
XPS
-4
-1
0
Mono(Al (Mono))
1486.69
150
1e+037
1e+037
6000
6000
1e+037
1e+037
FAT
160
1e+037
-4.803
0
1e+037
1e+037
1e+037
1e+037
Wide
None
-1
Kinetic Energy
eV
136.69
0.5
2
Intensity
d
Transmission
d
pulse counting
0.1
2
0
1e+037
1e+037
1e+037
0
5402
140
65128
25.7891
29.504
10162
27.0049
9954
27.0049
10078
27.0049
10077
27.0049
10162
27.0049
9928
27.0049
9887
27.0049
10025
27.0049
10119
27.0049
9991
27.0049
10092
27.0049
9920
27.0049
10129
27.0049
9988
27.0049
10043
27.0049
10077
27.0049
10016
27.0049
10008
27.0049
10063
27.0049
10023
27.0049
10103
27.0049
10129
27.0049
10274
27.0049
10323
27.0049
9958
27.0049
9896
27.0049
10206
27.0049
10153
27.0049
9948
27.0049
10023
27.0049
10102
27.0049
10103
27.0049
10109
27.0049
9970
27.0049
10026
27.0049
9994
27.0049
9962
27.0049
9992
27.0049
10143
27.0049
10073
27.0049
10028
27.0049
9990
27.0049
9978
27.0049
10115
27.0049
10175
27.0049
9861
27.0049
10233
27.0049
9999
27.0049
10012
27.0049
10053
27.0049
10229
27.0049
10178
27.0049
10064
27.0049
10236
27.0049
10169
27.0049
10109
27.0049
10075
27.0049
10184
27.0049
10086
27.0049
10109
27.0049
10212
27.0049
10200
27.0049
10140
27.0049
10159
27.0049
10036
27.0049
9986
27.0049
9959
27.0049
9999
27.0049
10083
27.0049
10140
27.0049
10103
27.0049
10191
27.0049
10120
27.0049
10192
27.0049
10101
27.0049
10333
27.0049
10103
27.0049
10232
27.0049
10215
27.0049
10337
27.0049
10310
27.0049
10352
27.0049
10197
27.0049
10189
27.0049
10060
27.0049
10166
27.0049
10035
27.0049
10018
27.0049
10222
27.0049
10226
27.0049
10391
27.0049
10329
27.0049
10448
27.0049
10386
27.0049
10324
27.0049
10358
27.0049
10328
27.0049
10339
27.0049
10389
27.0049
10288
27.0049
10380
27.0049
10394
27.0049
10508
27.0049
10453
27.0049
10121
27.0049
10243
27.0049
10277
27.0049
10388
27.0049
10302
27.0049
10317
27.0049
10462
27.0049
10457
27.0049
10441
27.0049
10380
27.0049
10484
27.0049
10539
27.0049
10558
27.0049
10593
27.0049
10471
27.0049
10501
27.0049
10485
27.0049
10523
27.0049
10383
27.0049
10461
27.0049
10515
27.0049
10342
27.0049
10527
27.0049
10615
27.0049
10492
27.0049
10687
27.0049
10645
27.0049
10632
27.0049
10679
27.0049
10649
27.0049
10513
27.0049
10623
27.0049
10773
27.0049
10703
27.0049
10735
27.0049
10813
27.0049
10890
27.0049
10983
27.0049
10894
27.0049
10934
27.0049
10995
27.0049
10936
27.0049
11158
27.0049
10958
27.005
11138
27.005
11223
27.0051
11095
27.0051
11113
27.0052
10975
27.0052
10892
27.0053
11042
27.0054
11124
27.0054
11109
27.0055
10991
27.0055
11010
27.0056
10989
27.0056
11022
27.0057
11113
27.0057
11096
27.0058
11257
27.0059
11306
27.0059
11118
27.006
11122
27.006
11213
27.0061
11292
27.0061
11521
27.0062
11362
27.0063
11232
27.0063
11303
27.0064
11272
27.0064
11422
27.0065
11155
27.0065
11423
27.0066
11347
27.0067
11454
27.0067
11431
27.0068
11259
27.0068
11313
27.0069
11403
27.0069
11387
27.007
11437
27.007
11442
27.0071
11419
27.0072
11424
27.0072
11585
27.0073
11532
27.0073
11505
27.0074
11447
27.0074
11588
27.0075
11612
27.0076
11759
27.0076
11844
27.0077
11731
27.0077
11712
27.0078
11734
27.0078
11801
27.0079
11776
27.008
11747
27.008
11845
27.0081
11731
27.0081
11926
27.0082
11907
27.0082
11971
27.0083
12007
27.0083
12093
27.0084
12275
27.0085
12158
27.0085
12236
27.0086
12343
27.0086
12433
27.0087
12471
27.0087
12404
27.0088
12344
27.0089
12303
27.0089
12206
27.009
12330
27.009
12383
27.0091
12457
27.0091
12507
27.0092
12424
27.0093
12470
27.0093
12484
27.0094
12290
27.0094
12292
27.0095
12360
27.0095
12331
27.0096
12338
27.0096
12214
27.0097
12341
27.0098
12217
27.0098
12266
27.0099
12335
27.0099
12285
27.01
12296
27.01
12436
27.0101
12636
27.0102
12496
27.0102
12789
27.0103
13068
27.0103
12924
27.0104
13278
27.0104
13436
27.0105
13272
27.0105
13496
27.0115
13394
27.0131
13522
27.0148
13521
27.0164
13649
27.018
13613
27.0197
13810
27.0213
13782
27.0229
13750
27.0246
13664
27.0262
13780
27.0278
13808
27.0295
13733
27.0311
13733
27.0327
13707
27.0344
13595
27.036
13410
27.0377
13382
27.0393
13400
27.0409
13381
27.0426
13354
27.0442
13189
27.0458
13035
27.0475
12834
27.0491
12721
27.0507
12603
27.0524
12450
27.054
12127
27.0556
11813
27.0573
11726
27.0589
11554
27.0605
11206
27.0622
11063
27.0638
10751
27.0655
10479
27.0671
10218
27.0687
9995
27.0704
9773
27.072
9439
27.0736
9255
27.0753
8983
27.0769
8584
27.0785
8517
27.0802
8187
27.0818
7948
27.0834
7871
27.0851
7742
27.0867
7557
27.0883
7261
27.09
7211
27.0916
7113
27.0933
7112
27.0949
6935
27.0965
6930
27.0982
6739
27.0998
6803
27.1014
6711
27.1031
6641
27.1047
6680
27.1063
6821
27.108
6724
27.1096
6689
27.1112
6642
27.1129
6498
27.1145
6634
27.1161
6660
27.1178
6586
27.1194
6608
27.1211
6643
27.1227
6668
27.1243
6636
27.126
6586
27.1276
6681
27.1292
6618
27.1309
6576
27.1325
6587
27.1341
6555
27.1358
6792
27.1374
6692
27.139
6682
27.1407
6649
27.1423
6704
27.1439
6654
27.1456
6682
27.1472
6738
27.1489
6630
27.1505
6681
27.1521
6670
27.1538
6684
27.1554
6784
27.157
6688
27.1587
6739
27.1603
6778
27.1619
6737
27.1636
6701
27.1652
6699
27.1668
6642
27.1685
6702
27.1701
6747
27.1717
6706
27.1734
6714
27.1731
6766
27.1714
6725
27.1697
6698
27.168
6697
27.1663
6731
27.1646
6746
27.1629
6931
27.1612
6918
27.1595
6869
27.1578
6696
27.1561
6811
27.1544
6790
27.1527
6773
27.151
6851
27.1493
6799
27.1476
6864
27.1459
6766
27.1442
6886
27.1425
6881
27.1407
6823
27.139
6873
27.1373
6934
27.1356
6876
27.1339
6895
27.1322
6807
27.1305
6784
27.1288
6826
27.1271
6791
27.1254
6850
27.1237
6865
27.122
6960
27.1203
6897
27.1186
6792
27.1169
6842
27.1152
6836
27.1135
6860
27.1118
6994
27.11
6914
27.1083
6871
27.1066
6896
27.1049
6954
27.1032
6871
27.1015
6888
27.0998
6960
27.0981
6810
27.0964
7002
27.0947
6846
27.093
6908
27.0913
6950
27.0896
6990
27.0879
6918
27.0862
6806
27.0845
6823
27.0828
6923
27.0811
6940
27.0793
7007
27.0776
6908
27.0759
6899
27.0742
7015
27.0725
7028
27.0708
6990
27.0691
6953
27.0674
7016
27.0657
6975
27.064
6938
27.0623
6960
27.0606
6998
27.0589
7032
27.0572
7042
27.0555
6978
27.0538
7098
27.0521
7101
27.0504
6984
27.0487
7138
27.0469
7097
27.0452
7001
27.0435
7058
27.0418
6950
27.0401
6949
27.0384
7032
27.0367
7105
27.035
7105
27.0333
7125
27.0316
7084
27.0299
7134
27.0282
7128
27.0265
7162
27.0248
7108
27.0231
7063
27.0214
7038
27.0197
7134
27.018
7169
27.0162
7125
27.0145
7029
27.0128
7021
27.0111
7107
27.0094
7167
27.0077
7185
27.006
7043
27.0043
7122
27.0023
7209
26.9999
7181
26.9976
7198
26.9953
7140
26.993
7103
26.9907
7081
26.9884
7110
26.9861
7188
26.9837
7247
26.9814
7268
26.9791
7320
26.9768
7132
26.9745
7312
26.9722
7180
26.9699
7247
26.9675
7334
26.9652
7322
26.9629
7358
26.9606
7426
26.9583
7373
26.956
7189
26.9536
7278
26.9513
7234
26.949
7342
26.9467
7303
26.9444
7261
26.9421
7433
26.9398
7473
26.9374
7364
26.9351
7231
26.9328
7260
26.9305
7334
26.9282
7344
26.9259
7208
26.9235
7259
26.9212
7384
26.9189
7413
26.9166
7417
26.9143
7291
26.912
7313
26.9097
7359
26.9073
7310
26.905
7353
26.9027
7354
26.9004
7342
26.8981
7456
26.8958
7419
26.8935
7444
26.8911
7491
26.8888
7403
26.8865
7531
26.8842
7465
26.8819
7495
26.8796
7425
26.8772
7513
26.8749
7439
26.8726
7379
26.8703
7242
26.868
7274
26.8657
7441
26.8634
7421
26.861
7356
26.8587
7411
26.8564
7491
26.8541
7424
26.8518
7384
26.8495
7542
26.8471
7504
26.8448
7305
26.8425
7402
26.8402
7407
26.8379
7322
26.8356
7310
26.8333
7451
26.8309
7395
26.8286
7247
26.8263
7325
26.824
7349
26.8217
7372
26.8194
7366
26.8171
7305
26.8147
7305
26.8124
7549
26.8101
7394
26.8078
7374
26.8055
7404
26.8032
7504
26.8008
7432
26.7985
7443
26.7962
7475
26.7939
7490
26.7916
7453
26.7893
7504
26.787
7422
26.7846
7588
26.7823
7592
26.78
7529
26.7777
7470
26.7754
7340
26.7731
7554
26.7707
7561
26.7682
7524
26.7657
7560
26.7633
7522
26.7608
7600
26.7584
7605
26.7559
7667
26.7534
7602
26.751
7630
26.7485
7666
26.7461
7553
26.7436
7672
26.7411
7711
26.7387
7534
26.7362
7495
26.7337
7504
26.7313
7509
26.7288
7586
26.7264
7664
26.7239
7565
26.7214
7673
26.719
7598
26.7165
7603
26.7141
7730
26.7116
7583
26.7091
7643
26.7067
7821
26.7042
7702
26.7018
7713
26.6993
7733
26.6968
7738
26.6944
7760
26.6919
7669
26.6894
7504
26.687
7754
26.6845
7718
26.6821
7652
26.6796
7756
26.6771
7750
26.6747
7637
26.6722
7677
26.6698
7700
26.6673
7806
26.6648
7856
26.6624
7821
26.6599
7655
26.6574
7664
26.655
7785
26.6525
7890
26.6501
7857
26.6476
7901
26.6451
7907
26.6427
7805
26.6402
7803
26.6378
7748
26.6353
7834
26.6328
7898
26.6304
7784
26.6279
7808
26.6255
7730
26.623
7880
26.6205
7901
26.6181
7848
26.6156
7869
26.6131
7825
26.6107
7826
26.6082
7851
26.6058
7996
26.6033
7988
26.6008
7916
26.5984
7996
26.5959
7937
26.5935
8007
26.591
7991
26.5885
7856
26.5861
7848
26.5836
7903
26.5812
8014
26.5787
7966
26.5762
8016
26.5738
8069
26.5713
7943
26.5688
8019
26.5664
8150
26.5639
8075
26.5615
8134
26.559
8031
26.5565
8027
26.5541
7960
26.5516
8118
26.5492
8071
26.5467
8062
26.5442
8103
26.5418
8029
26.5393
8166
26.5368
8173
26.5344
8185
26.5319
8217
26.5295
8135
26.527
8079
26.5256
8195
26.5249
8169
26.5243
8151
26.5236
8039
26.523
8072
26.5223
8253
26.5217
8237
26.521
8118
26.5204
8149
26.5198
8340
26.5191
8445
26.5185
8261
26.5178
8242
26.5172
8184
26.5165
8264
26.5159
8196
26.5153
8321
26.5146
8277
26.514
8242
26.5133
8345
26.5127
8413
26.512
8234
26.5114
8352
26.5107
8292
26.5101
8594
26.5095
8388
26.5088
8367
26.5082
8410
26.5075
8488
26.5069
8447
26.5062
8427
26.5056
8450
26.5049
8564
26.5043
8451
26.5037
8489
26.503
8440
26.5024
8373
26.5017
8539
26.5011
8465
26.5004
8354
26.4998
8378
26.4992
8412
26.4985
8621
26.4979
8630
26.4972
8537
26.4966
8534
26.4959
8757
26.4953
8667
26.4946
8691
26.494
8685
26.4934
8622
26.4927
8742
26.4921
8750
26.4914
8779
26.4908
8818
26.4901
8909
26.4895
9004
26.4888
8983
26.4882
8963
26.4876
9037
26.4869
9048
26.4863
8986
26.4856
9060
26.485
9112
26.4843
9027
26.4837
9040
26.483
8757
26.4824
8869
26.4818
8848
26.4811
8900
26.4805
8986
26.4798
8857
26.4792
8768
26.4785
8590
26.4779
8595
26.4773
8514
26.4766
8557
26.476
8624
26.4753
8420
26.4747
8437
26.474
8515
26.4734
8521
26.4727
8369
26.4721
8466
26.4715
8420
26.4708
8537
26.4702
8520
26.4695
8635
26.4689
8367
26.4682
8387
26.4676
8407
26.4669
8651
26.4663
8748
26.4657
8747
26.465
8712
26.4644
8809
26.4637
9145
26.4631
9107
26.4624
9122
26.4618
9323
26.461
9539
26.4601
9641
26.4592
9545
26.4583
9679
26.4574
9910
26.4565
9795
26.4556
10040
26.4547
9905
26.4539
9901
26.453
9966
26.4521
9981
26.4512
9856
26.4503
9696
26.4494
9683
26.4485
9548
26.4476
9493
26.4467
9229
26.4458
9196
26.4449
9243
26.444
8958
26.4431
8806
26.4422
8667
26.4413
8487
26.4404
8304
26.4395
8153
26.4387
8077
26.4378
7807
26.4369
7699
26.436
7507
26.4351
7363
26.4342
7351
26.4333
7393
26.4324
7313
26.4315
7407
26.4306
7086
26.4297
7038
26.4288
7090
26.4279
7052
26.427
7118
26.4261
7211
26.4252
7090
26.4243
7016
26.4234
7002
26.4226
7174
26.4217
7026
26.4208
7050
26.4199
7142
26.419
7062
26.4181
7044
26.4172
6918
26.4163
6992
26.4154
7105
26.4145
7092
26.4136
6987
26.4127
6955
26.4118
6973
26.4109
7129
26.41
7184
26.4091
7015
26.4082
7054
26.4074
7130
26.4065
7025
26.4056
7021
26.4047
7087
26.4038
7023
26.4029
6992
26.402
6923
26.4011
7133
26.4002
7161
26.3993
7017
26.3984
7030
26.3975
7101
26.3966
7144
26.3957
7177
26.3948
7161
26.3939
7162
26.393
7225
26.3921
7108
26.3913
6994
26.3904
7084
26.3895
7118
26.3886
7087
26.3877
7185
26.3868
7190
26.3859
7060
26.385
7045
26.3841
7158
26.3832
7234
26.3823
7319
26.3814
7206
26.3805
7180
26.3796
7094
26.3787
7206
26.3778
7217
26.3769
7183
26.376
7174
26.3752
7208
26.3743
7253
26.3734
7126
26.3725
7167
26.3723
7325
26.3727
7221
26.3731
7128
26.3735
7295
26.3738
7158
26.3742
7247
26.3746
7295
26.375
7269
26.3754
7293
26.3758
7277
26.3762
7242
26.3766
7313
26.3769
7258
26.3773
7336
26.3777
7286
26.3781
7235
26.3785
7299
26.3789
7166
26.3793
7294
26.3797
7282
26.38
7310
26.3804
7301
26.3808
7343
26.3812
7357
26.3816
7299
26.382
7218
26.3824
7149
26.3828
7268
26.3831
7196
26.3835
7411
26.3839
7365
26.3843
7475
26.3847
7369
26.3851
7398
26.3855
7438
26.3859
7364
26.3862
7313
26.3866
7373
26.387
7126
26.3874
7342
26.3878
7349
26.3882
7361
26.3886
7494
26.389
7267
26.3893
7349
26.3897
7402
26.3901
7353
26.3905
7390
26.3909
7444
26.3913
7374
26.3917
7400
26.3921
7465
26.3924
7420
26.3928
7374
26.3932
7379
26.3936
7424
26.394
7369
26.3944
7378
26.3948
7330
26.3952
7469
26.3955
7439
26.3959
7403
26.3963
7358
26.3967
7394
26.3971
7372
26.3975
7375
26.3979
7483
26.3983
7334
26.3986
7331
26.399
7355
26.3994
7395
26.3998
7408
26.4002
7512
26.4006
7522
26.401
7562
26.4014
7490
26.4017
7479
26.4021
7420
26.4025
7332
26.4029
7339
26.4033
7420
26.4037
7413
26.4041
7457
26.4045
7553
26.4048
7582
26.4052
7597
26.4056
7706
26.406
7562
26.4064
7552
26.4068
7540
26.4072
7569
26.4076
7555
26.4079
7409
26.4083
7435
26.4087
7592
26.4091
7524
26.4095
7533
26.4099
7476
26.4103
7648
26.4107
7729
26.4113
7669
26.4123
7514
26.4132
7517
26.4141
7655
26.4151
7501
26.416
7520
26.4169
7561
26.4179
7521
26.4188
7668
26.4197
7704
26.4207
7686
26.4216
7587
26.4225
7601
26.4234
7610
26.4244
7560
26.4253
7601
26.4262
7556
26.4272
7615
26.4281
7642
26.429
7627
26.43
7616
26.4309
7668
26.4318
7727
26.4328
7660
26.4337
7626
26.4346
7567
26.4356
7598
26.4365
7646
26.4374
7700
26.4383
7753
26.4393
7739
26.4402
7696
26.4411
7805
26.4421
7696
26.443
7631
26.4439
7640
26.4449
7592
26.4458
7653
26.4467
7617
26.4477
7662
26.4486
7693
26.4495
7803
26.4505
7690
26.4514
7850
26.4523
7853
26.4532
7726
26.4542
7671
26.4551
7700
26.456
7782
26.457
7582
26.4579
7628
26.4588
7693
26.4598
7637
26.4607
7671
26.4616
7672
26.4626
7713
26.4635
7768
26.4644
7873
26.4654
7985
26.4663
7807
26.4672
7744
26.4681
7856
26.4691
7783
26.47
7903
26.4709
7618
26.4719
7685
26.4728
7728
26.4737
7792
26.4747
7769
26.4756
8022
26.4765
7709
26.4775
7772
26.4784
7802
26.4793
7743
26.4803
7810
26.4812
7914
26.4821
7889
26.483
7830
26.484
7770
26.4849
7902
26.4858
7697
26.4868
7786
26.4877
7829
26.4886
7883
26.4896
7737
26.4905
7734
26.4914
7910
26.4924
7829
26.4933
7773
26.4942
7941
26.4952
7898
26.4961
7792
26.497
7876
26.4979
7859
26.4989
7898
26.4998
7913
26.5007
8008
26.5017
8021
26.5026
7987
26.5035
7855
26.5032
7898
26.5018
7945
26.5005
8015
26.4991
7889
26.4977
7862
26.4964
7940
26.495
7843
26.4937
7904
26.4923
7954
26.4909
7788
26.4896
7921
26.4882
8148
26.4868
7976
26.4855
8056
26.4841
7817
26.4828
7990
26.4814
8022
26.48
8048
26.4787
7978
26.4773
7995
26.476
8010
26.4746
7983
26.4732
7902
26.4719
8011
26.4705
8017
26.4691
8121
26.4678
7999
26.4664
8066
26.4651
7956
26.4637
8001
26.4623
7938
26.461
7941
26.4596
8035
26.4583
8004
26.4569
7896
26.4555
7834
26.4542
8049
26.4528
8001
26.4515
7934
26.4501
8141
26.4487
8056
26.4474
8134
26.446
8063
26.4446
8115
26.4433
8102
26.4419
8002
26.4406
8072
26.4392
8233
26.4378
8106
26.4365
8152
26.4351
8146
26.4338
8010
26.4324
8048
26.431
8106
26.4297
8068
26.4283
8050
26.427
8033
26.4256
8082
26.4242
8074
26.4229
7964
26.4215
8145
26.4201
8054
26.4188
8102
26.4174
8189
26.4161
8165
26.4147
8139
26.4133
8140
26.412
8185
26.4106
8178
26.4093
8165
26.4079
8026
26.4065
8047
26.4052
8007
26.4038
8177
26.4024
8240
26.4011
8154
26.3997
8034
26.3984
8068
26.397
8037
26.3956
8254
26.3942
8492
26.3928
8198
26.3914
8166
26.3899
8252
26.3885
8161
26.387
8179
26.3856
8199
26.3841
8145
26.3827
8205
26.3813
8258
26.3798
8074
26.3784
8219
26.3769
8217
26.3755
8171
26.3741
8178
26.3726
8145
26.3712
8159
26.3697
8056
26.3683
8076
26.3669
8262
26.3654
8297
26.364
8236
26.3625
8114
26.3611
8236
26.3597
8229
26.3582
8311
26.3568
8342
26.3553
8296
26.3539
8308
26.3524
8263
26.351
8312
26.3496
8296
26.3481
8313
26.3467
8403
26.3452
8421
26.3438
8180
26.3424
8183
26.3409
8226
26.3395
8332
26.338
8337
26.3366
8336
26.3352
8166
26.3337
8343
26.3323
8312
26.3308
8291
26.3294
8298
26.328
8225
26.3265
8270
26.3251
8350
26.3236
8282
26.3222
8334
26.3208
8501
26.3193
8448
26.3179
8380
26.3164
8427
26.315
8366
26.3135
8436
26.3121
8292
26.3107
8293
26.3092
8306
26.3078
8525
26.3063
8484
26.3049
8458
26.3035
8428
26.302
8404
26.3006
8428
26.2991
8419
26.2977
8429
26.2963
8370
26.2948
8593
26.2934
8548
26.2919
8385
26.2905
8477
26.2891
8484
26.2876
8477
26.2862
8517
26.2847
8518
26.2833
8417
26.2818
8434
26.2804
8617
26.279
8579
26.2775
8514
26.2761
8450
26.2746
8549
26.2732
8435
26.2718
8531
26.2703
8555
26.2689
8476
26.2674
8355
26.266
8503
26.2646
8490
26.2631
8459
26.2617
8423
26.2602
8481
26.2588
8438
26.2574
8456
26.2559
8366
26.2545
8455
26.253
8638
26.2516
8704
26.2501
8780
26.2487
8543
26.2473
8512
26.2458
8495
26.2444
8488
26.2429
8594
26.2415
8752
26.2401
8601
26.2386
8568
26.2372
8467
26.2357
8615
26.2343
8625
26.2329
8539
26.2314
8603
26.23
8536
26.2285
8543
26.2271
8728
26.2257
8634
26.2242
8620
26.2228
8694
26.2231
8788
26.2249
8765
26.2266
8737
26.2283
8583
26.2301
8567
26.2318
8613
26.2336
8718
26.2353
8648
26.237
8683
26.2388
8700
26.2405
8757
26.2423
8705
26.244
8845
26.2458
8562
26.2475
8656
26.2492
8763
26.251
8812
26.2527
8729
26.2545
8803
26.2562
8864
26.2579
8617
26.2597
8600
26.2614
8734
26.2632
8741
26.2649
8852
26.2667
8924
26.2684
8790
26.2701
8781
26.2719
8901
26.2736
8760
26.2754
8741
26.2771
8535
26.2788
8688
26.2806
8757
26.2823
8844
26.2841
8780
26.2858
8855
26.2876
8765
26.2893
8739
26.291
8790
26.2928
8815
26.2945
8829
26.2963
8732
26.298
8983
26.2997
8785
26.3015
8719
26.3032
8793
26.305
8891
26.3067
8835
26.3085
8836
26.3102
8810
26.3119
8845
26.3137
8898
26.3154
8916
26.3172
8719
26.3189
8787
26.3206
8915
26.3224
8761
26.3241
8717
26.3259
8876
26.3276
8815
26.3294
8764
26.3311
8867
26.3328
8886
26.3346
8925
26.3363
8884
26.3381
8863
26.3398
8885
26.3415
8761
26.3433
8861
26.345
9058
26.3468
9057
26.3485
8998
26.3503
8834
26.352
8867
26.3537
8924
26.3555
8972
26.3572
8779
26.359
8913
26.3607
8914
26.3624
8839
26.3642
8951
26.3659
9001
26.3677
8981
26.3694
9069
26.3712
9207
26.3729
9108
26.3746
9065
26.3764
9059
26.3781
9057
26.3799
8962
26.3816
9210
26.3833
9025
26.3851
8925
26.3868
8980
26.3886
9031
26.3903
9143
26.3921
9070
26.3938
9043
26.3955
9054
26.3957
8896
26.3947
9172
26.3937
9258
26.3926
9021
26.3916
9026
26.3906
8948
26.3896
9056
26.3885
9047
26.3875
9062
26.3865
9135
26.3854
9095
26.3844
8931
26.3834
8963
26.3824
8968
26.3813
9132
26.3803
8964
26.3793
9192
26.3782
9143
26.3772
9097
26.3762
9122
26.3752
8952
26.3741
9059
26.3731
9120
26.3721
8969
26.3711
9119
26.37
9270
26.369
9131
26.368
9018
26.3669
9081
26.3659
9166
26.3649
9254
26.3639
9093
26.3628
9047
26.3618
9126
26.3608
9298
26.3597
9132
26.3587
9092
26.3577
9171
26.3567
9114
26.3556
9229
26.3546
9198
26.3536
9199
26.3525
9102
26.3515
9183
26.3505
9209
26.3495
9230
26.3484
9241
26.3474
9160
26.3464
9233
26.3454
9175
26.3443
9150
26.3433
9225
26.3423
9223
26.3412
9285
26.3402
9395
26.3392
9416
26.3382
9426
26.3371
9329
26.3361
9359
26.3351
9220
26.334
9401
26.333
9270
26.332
9333
26.331
9345
26.3299
9273
26.3289
9159
26.3279
9112
26.3268
9123
26.3258
9278
26.3248
9251
26.3238
9288
26.3227
9360
26.3217
9217
26.3207
9344
26.3196
9425
26.3186
9407
26.3176
9272
26.3166
9350
26.3155
9387
26.3145
9350
26.3135
9303
26.3125
9397
26.3114
9315
26.3104
9221
26.3094
9215
26.3083
9343
26.3073
9423
26.3063
9390
26.3053
9290
26.3042
9271
26.3032
9331
26.3022
9459
26.3011
9403
26.3001
9361
26.2991
9560
26.2981
9528
26.297
9418
26.296
9408
26.295
9443
26.2939
9400
26.2929
9378
26.2919
9617
26.2909
9390
26.2898
9383
26.2888
9460
26.2878
9411
26.2868
9495
26.2857
9506
26.2847
9413
26.2837
9529
26.2826
9458
26.2816
9429
26.2806
9500
26.2796
9670
26.2785
9490
26.2775
9613
26.2765
9477
26.2754
9511
26.2744
9568
26.2734
9550
26.2731
9423
26.2735
9640
26.2738
9382
26.2741
9532
26.2745
9514
26.2748
9633
26.2751
9412
26.2755
9574
26.2758
9649
26.2761
9659
26.2765
9544
26.2768
9634
26.2771
9749
26.2775
9609
26.2778
9536
26.2782
9662
26.2785
9696
26.2788
9686
26.2792
9820
26.2795
9620
26.2798
9598
26.2802
9627
26.2805
9661
26.2808
9802
26.2812
9599
26.2815
9627
26.2818
9689
26.2822
9727
26.2825
9817
26.2828
9732
26.2832
9624
26.2835
9704
26.2839
9669
26.2842
9823
26.2845
9512
26.2849
9505
26.2852
9630
26.2855
9690
26.2859
9784
26.2862
9778
26.2865
9803
26.2869
9808
26.2872
9753
26.2875
9682
26.2879
9732
26.2882
9677
26.2885
9878
26.2889
9807
26.2892
9744
26.2896
9846
26.2899
9923
26.2902
9724
26.2906
9804
26.2909
9819
26.2912
9859
26.2916
9761
26.2919
9800
26.2922
9879
26.2926
9845
26.2929
9772
26.2932
9976
26.2936
9910
26.2939
9725
26.2942
9751
26.2946
9859
26.2949
9845
26.2953
9786
26.2956
9837
26.2959
10075
26.2963
9899
26.2966
9972
26.2969
9958
26.2973
9909
26.2976
9927
26.2979
10057
26.2983
9978
26.2986
9816
26.2989
9782
26.2993
9847
26.2996
9896
26.3006
9931
26.3021
10007
26.3035
10058
26.305
9995
26.3065
9951
26.3079
9849
26.3094
9843
26.3109
9867
26.3124
9828
26.3138
9905
26.3153
9924
26.3168
9903
26.3183
9881
26.3197
10080
26.3212
9851
26.3227
9942
26.3241
9982
26.3256
9973
26.3271
9850
26.3286
9992
26.33
10037
26.3315
9901
26.333
9970
26.3345
10146
26.3359
10135
26.3374
10072
26.3389
10072
26.3403
9979
26.3418
10030
26.3433
10160
26.3448
10106
26.3462
10166
26.3477
10198
26.3492
10064
26.3506
10139
26.3521
10269
26.3536
10346
26.3551
10432
26.3565
10316
26.358
10399
26.3595
10389
26.361
10413
26.3624
10429
26.3639
10513
26.3654
10449
26.3668
10355
26.3683
10247
26.3698
10295
26.3713
10332
26.3727
10278
26.3742
10190
26.3757
10185
26.3772
10114
26.3786
10020
26.3801
10046
26.3816
10146
26.383
10019
26.3845
9799
26.386
9940
26.3875
9827
26.3889
9874
26.3904
9784
26.3919
9657
26.3933
9725
26.3948
9774
26.3963
9638
26.3978
9595
26.3992
9629
26.4007
9596
26.4022
9545
26.4037
9407
26.4051
9340
26.4066
9364
26.4081
9277
26.4095
9202
26.411
9158
26.4125
9372
26.414
9383
26.4154
9314
26.4169
9279
26.4184
9427
26.4199
9580
26.4213
9438
26.4228
9536
26.4243
9766
26.4257
9820
26.4272
9944
26.4287
10164
26.4302
10466
26.4316
11075
26.4331
12350
26.4346
14222
26.436
16575
26.4375
19214
26.439
21160
26.4405
21350
26.4419
19580
26.4434
17136
26.4449
14418
26.4464
11992
26.4478
10153
26.4493
9149
26.4508
8635
26.4522
8508
26.4537
8480
26.4552
8344
26.4567
8182
26.4581
8212
26.4596
8344
26.4611
8257
26.4626
8121
26.464
8344
26.4655
8446
26.467
8395
26.4684
8218
26.4699
8091
26.4714
8177
26.4729
8356
26.4743
8383
26.4758
8292
26.4753
8439
26.4734
8358
26.4714
8369
26.4694
8440
26.4674
8465
26.4654
8426
26.4635
8319
26.4615
8390
26.4595
8334
26.4575
8376
26.4556
8249
26.4536
8285
26.4516
8360
26.4496
8302
26.4476
8450
26.4457
8379
26.4437
8317
26.4417
8400
26.4397
8295
26.4377
8415
26.4358
8475
26.4338
8395
26.4318
8449
26.4298
8368
26.4278
8358
26.4259
8613
26.4239
8554
26.4219
8403
26.4199
8418
26.4179
8405
26.416
8403
26.414
8248
26.412
8325
26.41
8465
26.4081
8398
26.4061
8449
26.4041
8501
26.4021
8445
26.4001
8438
26.3982
8564
26.3962
8465
26.3942
8555
26.3922
8555
26.3902
8548
26.3883
8519
26.3863
8510
26.3843
8352
26.3823
8588
26.3803
8469
26.3784
8547
26.3764
8613
26.3744
8623
26.3724
8534
26.3704
8679
26.3685
8516
26.3665
8605
26.3645
8569
26.3625
8489
26.3606
8536
26.3586
8635
26.3566
8507
26.3546
8753
26.3526
8802
26.3507
8664
26.3487
8529
26.3467
8556
26.3447
8533
26.3427
8591
26.3408
8617
26.3388
8562
26.3368
8719
26.3348
8703
26.3328
8615
26.3309
8666
26.3289
8620
26.3269
8582
26.3249
8731
26.323
8733
26.321
8649
26.319
8737
26.3165
8757
26.3135
8731
26.3106
8874
26.3076
8884
26.3047
8776
26.3017
8713
26.2988
8623
26.2958
8811
26.2929
8711
26.2899
8734
26.2869
8755
26.284
8717
26.281
8591
26.2781
8665
26.2751
8612
26.2722
8824
26.2692
8719
26.2663
8720
26.2633
8741
26.2604
8742
26.2574
8873
26.2545
8859
26.2515
8767
26.2486
8711
26.2456
8807
26.2427
8882
26.2397
8783
26.2368
8797
26.2338
8845
26.2309
8704
26.2279
8875
26.225
8906
26.222
8834
26.2191
8792
26.2161
8851
26.2132
8840
26.2102
8821
26.2072
8826
26.2043
8878
26.2013
8942
26.1984
8863
26.1954
8942
26.1925
8978
26.1895
9080
26.1866
8875
26.1836
8907
26.1807
8929
26.1777
8913
26.1748
8871
26.1718
9001
26.1689
9147
26.1659
9024
26.163
8969
26.16
8912
26.1571
9038
26.1541
8917
26.1512
9068
26.1482
9015
26.1453
9053
26.1423
9126
26.1394
9116
26.1364
9196
26.1335
9041
26.1305
9063
26.1275
9109
26.1246
9141
26.1216
9038
26.1187
9259
26.1157
9160
26.1128
9193
26.1098
9104
26.1069
9045
26.1039
9233
26.101
9198
26.098
9013
26.0951
9040
26.0921
9035
26.0892
9074
26.0862
9204
26.0833
9139
26.0803
9099
26.0774
8974
26.0744
9171
26.0715
9278
26.0685
9204
26.0656
9128
26.0626
9206
26.0597
9253
26.0567
9237
26.0538
9184
26.0508
9171
26.0478
9163
26.0449
9253
26.0419
9215
26.039
9064
26.036
9061
26.0331
9123
26.0301
9190
26.0272
9209
26.0242
9292
26.0213
9132
26.0183
9190
26.0154
9291
26.0125
9215
26.0095
9254
26.0066
9259
26.0037
9308
26.0007
9363
25.9978
9246
25.9948
9382
25.9919
9155
25.989
9313
25.986
9332
25.9831
9259
25.9801
9268
25.9772
9503
25.9743
9422
25.9713
9322
25.9684
9572
25.9654
9363
25.9625
9242
25.9596
9398
25.9566
9322
25.9537
9193
25.9507
9279
25.9478
9495
25.9449
9264
25.9419
9252
25.939
9427
25.936
9287
25.9331
9370
25.9302
9597
25.9272
9328
25.9243
9475
25.9214
9424
25.9184
9495
25.9155
9475
25.9125
9389
25.9096
9383
25.9067
9512
25.9037
9425
25.9008
9504
25.8978
9558
25.8949
9582
25.892
9480
25.889
9603
25.8861
9580
25.8831
9505
25.8802
9637
25.8773
9605
25.8743
9639
25.8714
9692
25.8684
9601
25.8655
9576
25.8626
9685
25.8596
9779
25.8567
9714
25.8538
9986
25.8508
10283
25.8479
10754
25.8449
10657
25.842
10569
25.8391
10330
25.8361
10022
25.8332
9662
25.8302
9516
25.8273
9622
25.8244
9503
25.8214
9668
25.8185
9618
25.8155
9655
25.8126
9711
25.8097
9484
25.8067
9549
25.8038
9515
25.8008
9533
25.7979
9436
25.795
9561
25.792
9687
25.7891
9687
25.7909
9710
25.7963
9596
25.8018
9565
25.8073
9594
25.8128
9832
25.8183
9689
25.8237
9737
25.8292
9722
25.8347
9613
25.8402
9676
25.8457
9732
25.8511
9549
25.8566
9636
25.8621
9902
25.8676
9735
25.8731
9693
25.8785
9668
25.884
9659
25.8895
9832
25.895
9726
25.9004
9751
25.9059
9952
25.9114
9941
25.9169
9880
25.9224
10043
25.9278
9933
25.9333
9950
25.9388
9811
25.9443
9955
25.9498
9926
25.9552
10000
25.9607
9942
25.9662
10000
25.9717
9953
25.9772
9874
25.9826
9806
25.9881
9875
25.9936
9944
25.9991
9958
26.0046
9912
26.01
9925
26.0155
9959
26.021
10035
26.0265
9879
26.0319
9837
26.0374
9870
26.0429
9979
26.0484
10044
26.0539
10021
26.0593
10135
26.0648
10189
26.0703
10011
26.0758
10063
26.0813
9942
26.0867
9992
26.0922
9828
26.0977
10036
26.1032
10126
26.1087
10050
26.1141
10172
26.1196
10220
26.1251
10079
26.1306
10230
26.1361
10210
26.1415
10233
26.147
10186
26.1525
10221
26.158
10323
26.1635
10177
26.1689
10163
26.1744
10032
26.1799
10275
26.1854
10246
26.1908
10253
26.1963
10230
26.2018
10279
26.2073
10359
26.2128
10420
26.2182
10389
26.2237
10489
26.2292
10656
26.2347
10584
26.2402
10487
26.2456
10619
26.2511
10509
26.2566
10551
26.2621
10504
26.2676
10504
26.273
10589
26.2785
10588
26.284
10629
26.2895
10555
26.295
10476
26.3004
10602
26.3059
10591
26.3114
10452
26.3169
10556
26.3223
10674
26.3278
10414
26.3333
10535
26.3388
10318
26.3443
10401
26.3497
10394
26.3552
10513
26.3607
10518
26.3662
10326
26.3717
10270
26.3771
10245
26.3826
10279
26.3881
10318
26.3936
10252
26.3991
10201
26.4045
10100
26.41
10236
26.4155
10051
26.421
9943
26.4265
10026
26.4319
10082
26.4374
10245
26.4429
10039
26.4484
10104
26.4539
10064
26.4593
10204
26.4648
10176
26.4703
10212
26.4758
10315
26.4812
10317
26.4867
10430
26.4922
10456
26.4977
10547
26.5032
10576
26.5086
10708
26.5141
10896
26.5196
10881
26.5251
11000
26.5306
11004
26.536
11133
26.5415
11205
26.547
11279
26.5525
11357
26.558
11378
26.5634
11482
26.5689
11565
26.5744
11576
26.5799
11601
26.5854
11662
26.5908
11867
26.5963
11988
26.6018
11863
26.6073
11908
26.6127
11904
26.6182
11899
26.6237
11843
26.6292
12086
26.6347
12127
26.6401
11889
26.6456
11769
26.6511
11604
26.6566
11386
26.6621
11550
26.6675
11315
26.673
11056
26.6785
10780
26.684
10611
26.6895
10224
26.6949
9896
26.7004
9775
26.7059
9326
26.7114
9092
26.7169
8794
26.7223
8562
26.7278
8270
26.7333
8080
26.7388
7794
26.7443
7621
26.7497
7218
26.7552
6852
26.7607
6751
26.7662
6584
26.7716
6454
26.7768
6288
26.7816
6173
26.7864
6130
26.7913
5892
26.7961
5782
26.8009
5853
26.8058
5866
26.8106
5856
26.8154
6095
26.8203
6376
26.8251
6578
26.8299
6806
26.8348
7055
26.8396
7244
26.8444
7590
26.8493
8215
26.8541
8687
26.8589
9239
26.8638
9595
26.8686
10015
26.8734
10436
26.8783
11117
26.8831
12116
26.8879
13403
26.8928
15046
26.8976
17289
26.9024
20227
26.9073
24603
26.9121
33854
26.9169
51699
26.9218
65128
26.9266
59459
26.9314
41284
26.9363
20586
26.9411
6834
26.9459
2776
26.9507
1908
26.9556
1520
26.9604
1311
26.9652
1113
26.9701
1029
26.9749
917
26.9797
838
26.9846
813
26.9894
749
26.9942
682
26.9991
663
27.0039
649
27.0087
628
27.0136
584
27.0184
560
27.0232
573
27.0281
573
27.0329
553
27.0377
555
27.0426
552
27.0474
505
27.0522
552
27.0571
544
27.0619
526
27.0667
522
27.0716
516
27.0764
521
27.0812
572
27.0861
568
27.0909
520
27.0957
542
27.1006
549
27.1054
531
27.1102
495
27.1151
567
27.1199
559
27.1247
553
27.1296
530
27.1344
524
27.1392
510
27.1441
501
27.1489
543
27.1537
515
27.1586
542
27.1634
542
27.1682
485
27.1731
508
27.1779
567
27.1827
517
27.1876
482
27.1924
508
27.1972
519
27.2021
531
27.2069
520
27.2117
509
27.2166
513
27.2214
522
27.2262
488
27.2311
524
27.2359
487
27.2407
548
27.2456
524
27.2504
493
27.2552
524
27.2579
493
27.2589
508
27.26
511
27.261
493
27.262
511
27.263
507
27.264
527
27.265
511
27.2661
542
27.2671
491
27.2681
511
27.2691
491
27.2701
507
27.2711
544
27.2722
546
27.2732
529
27.2742
514
27.2752
484
27.2762
524
27.2772
515
27.2783
514
27.2793
480
27.2803
498
27.2813
514
27.2823
547
27.2833
519
27.2844
529
27.2854
577
27.2864
498
27.2874
526
27.2884
547
27.2894
526
27.2905
543
27.2915
574
27.2925
532
27.2935
565
27.2945
559
27.2955
565
27.2966
572
27.2976
519
27.2986
527
27.2996
527
27.3006
491
27.3016
517
27.3027
548
27.3037
472
27.3047
502
27.3057
527
27.3067
483
27.3077
485
27.3088
493
27.3098
521
27.3108
511
27.3118
491
27.3128
488
27.3138
503
27.3149
509
27.3159
466
27.3169
472
27.3179
518
27.3189
502
27.3199
494
27.321
514
27.322
518
27.323
489
27.324
490
27.325
498
27.326
475
27.3271
481
27.3281
522
27.3291
488
27.3301
507
27.3311
490
27.3321
509
27.3332
509
27.3342
496
27.3352
503
27.3362
503
27.3372
511
27.3382
475
27.3393
486
27.3403
491
27.3413
510
27.3423
503
27.3433
483
27.3443
485
27.3454
464
27.3464
510
27.3474
528
27.3484
524
27.3494
516
27.3504
499
27.3515
505
27.3525
485
27.3535
516
27.3545
495
27.3555
509
27.3565
509
27.3576
522
27.3586
503
27.3596
528
27.3606
532
27.3616
514
27.3626
477
27.3637
514
27.3647
533
27.3657
494
27.3667
478
27.3677
491
27.3687
478
27.3698
508
27.3708
497
27.3718
535
27.3728
483
27.3738
531
27.3748
574
27.3759
569
27.3769
503
27.3779
532
27.3789
513
27.3785
523
27.3771
503
27.3756
462
27.3741
527
27.3726
521
27.3711
518
27.3696
470
27.3682
497
27.3667
517
27.3652
485
27.3637
472
27.3622
461
27.3608
497
27.3593
505
27.3578
452
27.3563
463
27.3548
513
27.3534
508
27.3519
467
27.3504
483
27.3489
475
27.3474
463
27.346
445
27.3445
440
27.343
471
27.3415
473
27.34
507
27.3386
494
27.3371
521
27.3356
496
27.3341
451
27.3326
465
27.3312
484
27.3297
502
27.3282
479
27.3267
482
27.3252
470
27.3238
515
27.3223
521
27.3208
596
27.3193
607
27.3178
639
27.3164
707
27.3149
652
27.3134
609
27.3119
576
27.3104
554
27.309
493
27.3075
487
27.306
508
27.3045
533
27.303
517
27.3016
478
27.3001
494
27.2986
489
27.2971
539
27.2956
534
27.2942
509
27.2927
506
27.2912
500
27.2897
531
27.2882
500
27.2867
517
27.2853
497
27.2838
478
27.2823
450
27.2808
466
27.2793
491
27.2779
493
27.2764
494
27.2749
513
27.2734
470
27.2719
509
27.2705
508
27.269
531
27.2675
508
27.266
517
27.2645
496
27.2631
486
27.2616
482
27.2601
500
27.2586
505
27.2571
478
27.2557
509
27.2542
477
27.2527
471
27.2512
488
27.2497
505
27.2483
529
27.2468
544
27.2453
468
27.2438
459
27.2423
472
27.2409
499
27.2394
518
27.2379
508
27.2364
479
27.2349
493
27.2335
512
27.232
500
27.2305
494
27.229
508
27.2275
501
27.2261
499
27.2246
491
27.2231
520
27.2216
498
27.2201
525
27.2187
500
27.2172
499
27.2157
519
27.2142
466
27.2197
476
27.2307
466
27.2417
490
27.2528
492
27.2638
500
27.2748
497
27.2858
503
27.2968
508
27.3078
547
27.3188
488
27.3298
478
27.3409
510
27.3519
506
27.3629
497
27.3739
460
27.3849
500
27.3959
479
27.4069
506
27.4179
493
27.4289
494
27.44
483
27.451
491
27.462
500
27.473
504
27.484
516
27.495
499
27.506
529
27.517
547
27.5281
498
27.5391
498
27.5501
487
27.5611
522
27.5721
504
27.5831
479
27.5941
477
27.6051
481
27.6161
499
27.6272
523
27.6382
504
27.6492
500
27.6602
482
27.6712
516
27.6822
526
27.6932
513
27.7042
515
27.7153
524
27.7263
541
27.7373
515
27.7483
535
27.7593
536
27.7703
514
27.7813
515
27.7923
506
27.8034
515
27.8144
530
27.8254
523
27.8364
510
27.8474
518
27.8584
488
27.8694
513
27.8804
514
27.8914
522
27.9025
547
27.9135
557
27.9245
546
27.9355
516
27.9465
522
27.9575
500
27.9685
514
27.9795
509
27.9906
517
28.0016
500
28.0126
488
28.0236
536
28.0346
537
28.0456
507
28.0566
506
28.0676
533
28.0786
505
28.0897
521
28.1007
556
28.1117
507
28.1227
486
28.1337
487
28.1447
523
28.1557
544
28.1667
542
28.1778
502
28.1888
540
28.1998
536
28.2108
541
28.2218
545
28.2328
533
28.2438
492
28.2548
500
28.2658
522
28.2769
526
28.2879
535
28.2989
557
28.3099
527
28.3209
508
28.3319
548
28.3429
494
28.3539
505
28.365
536
28.376
544
28.387
559
28.398
567
28.409
525
28.42
520
28.431
513
28.442
567
28.453
524
28.4641
531
28.4751
560
28.4861
552
28.4971
499
28.5081
552
28.5191
571
28.5301
554
28.5411
564
28.5522
559
28.5632
538
28.5742
555
28.5852
555
28.5962
531
28.6072
528
28.6182
526
28.6292
520
28.6402
531
28.6513
514
28.6623
535
28.6733
592
28.6843
564
28.6953
556
28.7063
544
28.7173
529
28.7283
530
28.7394
568
28.7504
552
28.7614
544
28.7724
522
28.7834
519
28.7944
529
28.8054
493
28.8164
519
28.8274
560
28.8385
565
28.8495
571
28.8605
568
28.8715
544
28.8825
577
28.8935
590
28.9045
593
28.9155
560
28.9266
599
28.9376
567
28.9486
585
28.9596
582
28.9706
551
28.9816
602
28.9926
612
29.0036
583
29.0146
598
29.0257
621
29.0367
639
29.0477
585
29.0587
597
29.0697
586
29.0807
598
29.0917
594
29.1027
651
29.1138
642
29.1248
591
29.1358
593
29.1468
665
29.1578
635
29.1688
629
29.1798
653
29.1908
600
29.2018
606
29.2129
582
29.2239
631
29.2349
580
29.2459
583
29.2569
580
29.2679
546
29.2789
553
29.2899
560
29.301
578
29.312
533
29.323
532
29.334
508
29.345
507
29.356
515
29.367
520
29.378
494
29.389
504
29.4001
486
29.4111
500
29.4221
511
29.4331
482
29.4441
502
29.4551
498
29.4661
505
29.4771
510
29.4882
548
29.4992
580
29.504
601
29.504
608
29.504
630
29.504
651
29.504
673
29.504
714
29.504
714
29.504
763
29.504
736
29.504
704
29.504
718
29.504
680
29.504
665
29.504
672
29.504
680
29.504
688
29.504
719
29.504
729
29.504
810
29.504
823
29.504
866
29.504
852
29.504
879
29.504
866
29.504
875
29.504
887
29.504
883
29.504
817
29.504
800
29.504
752
29.504
775
29.504
717
29.504
719
29.504
704
29.504
621
29.504
572
29.504
576
29.504
563
29.504
529
29.504
504
29.504
460
29.504
448
29.504
434
29.504
392
29.504
380
29.504
331
29.504
292
29.504
276
29.504
267
29.504
206
29.504
184
29.504
172
29.504
140
29.504
C 1s/3
Not Specified
2017
12
11
13
2
50
0
9
Casa Info Follows
1
Calib M = 280.836 A = 284.5 BE ADD
0
0
0
   XPS     Spectrum    Lens Mode:Hybrid   Resolution:Pass energy 20    Iris(Aper):slot(Slot)
   Acqn. Time(s): 261        Sweeps: 4        Anode:Mono(Al (Mono))(150 W)   Step(meV): 100.0 
   Dwell Time(ms): 250        Charge Neutraliser :On   Acquired On :17/12/11 13:02:50
XPS
-4
-1
0
Mono(Al (Mono))
1486.69
150
1e+037
1e+037
6000
6000
1e+037
1e+037
FAT
20
1e+037
-4.803
0
1e+037
1e+037
1e+037
1e+037
C
1s
-1
Kinetic Energy
eV
1186.69
0.1
2
Intensity
d
Transmission
d
pulse counting
0.25
4
0
1e+037
1e+037
1e+037
0
522
140
35402
1.1574
1.16426
1857
1.16426
1821
1.16422
1755
1.16418
1774
1.16414
1832
1.1641
1738
1.16406
1706
1.16402
1719
1.16398
1696
1.16393
1732
1.16389
1674
1.16385
1676
1.16381
1666
1.16377
1611
1.16373
1612
1.16369
1600
1.16365
1625
1.16361
1556
1.16357
1585
1.16352
1510
1.16348
1474
1.16344
1504
1.1634
1541
1.16336
1483
1.16332
1533
1.16328
1538
1.16324
1498
1.1632
1482
1.16315
1427
1.16311
1501
1.16307
1355
1.16303
1416
1.16299
1423
1.16295
1465
1.16292
1399
1.1629
1394
1.16287
1458
1.16285
1405
1.16282
1374
1.1628
1381
1.16278
1330
1.16275
1352
1.16273
1384
1.1627
1334
1.16268
1292
1.16265
1374
1.16263
1339
1.16261
1317
1.16258
1338
1.16256
1373
1.16253
1372
1.16251
1296
1.16248
1356
1.16246
1336
1.16244
1300
1.16241
1325
1.16239
1316
1.16236
1276
1.16234
1243
1.16231
1254
1.16229
1310
1.16226
1261
1.16224
1244
1.16222
1315
1.16219
1315
1.16217
1261
1.16214
1283
1.16212
1260
1.16209
1239
1.16207
1291
1.16205
1283
1.16202
1274
1.162
1239
1.16197
1254
1.16195
1240
1.16192
1253
1.1619
1282
1.16188
1366
1.16185
1354
1.16183
1359
1.1618
1345
1.16178
1348
1.16175
1355
1.16173
1371
1.16171
1403
1.16168
1401
1.16166
1451
1.16163
1383
1.16161
1423
1.16158
1445
1.16156
1490
1.16153
1431
1.16151
1436
1.16149
1425
1.16146
1470
1.16144
1451
1.16141
1451
1.16139
1431
1.16136
1433
1.16134
1537
1.16132
1505
1.16129
1448
1.16127
1524
1.16124
1555
1.16122
1454
1.16119
1432
1.16117
1549
1.16115
1565
1.16112
1573
1.1611
1560
1.16107
1566
1.16105
1654
1.16102
1712
1.161
1687
1.16097
1734
1.16095
1791
1.16093
1820
1.1609
1837
1.16088
1736
1.16085
1824
1.16083
1843
1.1608
1900
1.16078
1910
1.16076
1934
1.16073
2028
1.16071
2008
1.16068
1945
1.16066
1964
1.16063
1950
1.16061
1974
1.16059
1953
1.16056
2020
1.16054
1971
1.16051
1945
1.16049
1976
1.16046
1995
1.16044
1989
1.16042
1940
1.16039
1946
1.16037
2042
1.16034
2017
1.16032
2012
1.16029
2053
1.16027
2040
1.16024
2098
1.16022
2103
1.1602
2234
1.16017
2232
1.16015
2321
1.16012
2342
1.1601
2407
1.16007
2428
1.16005
2492
1.16003
2564
1.16
2573
1.15998
2684
1.15995
2690
1.15993
2738
1.1599
2857
1.15988
2830
1.15986
3001
1.15983
3104
1.15981
3267
1.15978
3351
1.15976
3523
1.15973
3670
1.15971
3804
1.15969
3966
1.15966
4230
1.15964
4381
1.15961
4296
1.15959
4351
1.15956
4424
1.15954
4471
1.15951
4541
1.15949
4571
1.15947
4620
1.15944
4713
1.15942
4916
1.15939
5384
1.15937
5655
1.15934
6074
1.15932
6757
1.1593
7670
1.15927
8766
1.15925
10363
1.15922
12611
1.1592
15816
1.15917
20013
1.15915
25418
1.15913
30973
1.1591
35402
1.15908
35288
1.15905
30839
1.15903
22899
1.159
15443
1.15898
9896
1.15895
6152
1.15893
4019
1.15891
2707
1.15888
1898
1.15886
1353
1.15883
1073
1.15881
819
1.15878
671
1.15876
536
1.15874
489
1.15871
433
1.15869
365
1.15866
372
1.15864
361
1.15861
354
1.15859
324
1.15857
302
1.15854
315
1.15852
260
1.15849
275
1.15847
243
1.15844
242
1.15842
224
1.1584
212
1.15837
197
1.15835
238
1.15832
220
1.1583
211
1.15827
194
1.15825
182
1.15822
182
1.1582
193
1.15818
207
1.15815
175
1.15813
147
1.1581
183
1.15808
178
1.15805
197
1.15803
160
1.15801
187
1.15798
177
1.15796
187
1.15793
172
1.15791
153
1.15788
173
1.15786
167
1.15784
166
1.15781
145
1.15779
162
1.15776
147
1.15774
169
1.15771
153
1.15769
152
1.15767
157
1.15764
171
1.15762
147
1.15759
142
1.15757
181
1.15754
143
1.15752
152
1.15749
140
1.15747
167
1.15745
156
1.15742
155
1.1574
N 1s/4
Not Specified
2017
12
11
13
2
50
0
9
Casa Info Follows
1
Calib M = 280.836 A = 284.5 BE ADD
0
0
0
   XPS     Spectrum    Lens Mode:Hybrid   Resolution:Pass energy 20    Iris(Aper):slot(Slot)
   Acqn. Time(s): 241        Sweeps: 4        Anode:Mono(Al (Mono))(150 W)   Step(meV): 100.0 
   Dwell Time(ms): 298        Charge Neutraliser :On   Acquired On :17/12/11 13:02:50
XPS
-4
-1
0
Mono(Al (Mono))
1486.69
150
1e+037
1e+037
6000
6000
1e+037
1e+037
FAT
20
1e+037
-4.803
0
1e+037
1e+037
1e+037
1e+037
N
1s
-1
Kinetic Energy
eV
1076.69
0.1
2
Intensity
d
Transmission
d
pulse counting
0.2985
4
0
1e+037
1e+037
1e+037
0
404
2518
3160
1.20216
1.21679
2689
1.21679
2583
1.21671
2653
1.21664
2574
1.21657
2584
1.2165
2626
1.21642
2598
1.21635
2641
1.21628
2598
1.21621
2603
1.21613
2683
1.21606
2601
1.21599
2630
1.21591
2661
1.21584
2598
1.21577
2603
1.2157
2641
1.21562
2679
1.21555
2603
1.21548
2685
1.2154
2657
1.21533
2583
1.21526
2594
1.21519
2670
1.21511
2781
1.21504
2589
1.21497
2638
1.2149
2691
1.21482
2642
1.21475
2639
1.21468
2576
1.2146
2586
1.21453
2606
1.21446
2686
1.21439
2613
1.21431
2599
1.21424
2625
1.21417
2621
1.2141
2644
1.21402
2658
1.21395
2674
1.21388
2643
1.2138
2634
1.21373
2655
1.21366
2668
1.21359
2584
1.21351
2626
1.21344
2661
1.21337
2635
1.21329
2572
1.21322
2626
1.21315
2609
1.21308
2588
1.213
2652
1.21293
2642
1.21286
2660
1.21279
2635
1.21271
2607
1.21264
2643
1.21257
2614
1.21249
2572
1.21242
2670
1.21235
2611
1.21228
2603
1.2122
2622
1.21213
2643
1.21206
2658
1.21198
2616
1.21191
2720
1.21184
2595
1.21177
2656
1.21169
2609
1.21162
2566
1.21155
2659
1.21148
2718
1.2114
2682
1.21133
2681
1.21126
2663
1.21118
2602
1.21111
2548
1.21104
2653
1.21097
2628
1.21089
2592
1.21082
2588
1.21075
2665
1.21068
2646
1.2106
2643
1.21053
2589
1.21046
2539
1.21038
2607
1.21031
2597
1.21024
2664
1.21017
2656
1.21009
2664
1.21002
2669
1.20995
2618
1.20987
2620
1.2098
2624
1.20973
2618
1.20966
2609
1.20958
2592
1.20951
2611
1.20944
2681
1.20937
2653
1.20929
2656
1.20922
2659
1.20915
2673
1.20907
2667
1.209
2711
1.20893
2731
1.20886
2677
1.20878
2658
1.20871
2667
1.20864
2706
1.20856
2604
1.20849
2715
1.20842
2749
1.20835
2763
1.20827
2756
1.2082
2775
1.20813
2703
1.20806
2719
1.20798
2795
1.20791
2801
1.20784
2810
1.20776
2789
1.20769
2809
1.20762
2829
1.20755
2808
1.20747
2807
1.2074
2769
1.20733
2893
1.20726
3016
1.20718
2976
1.20711
2959
1.20704
2987
1.20696
3006
1.20689
3099
1.20682
3057
1.20675
3111
1.20667
3160
1.2066
3082
1.20653
3076
1.20645
2903
1.20638
2936
1.20631
2987
1.20624
2895
1.20616
2792
1.20609
2814
1.20602
2764
1.20595
2703
1.20587
2724
1.2058
2677
1.20573
2698
1.20565
2705
1.20558
2681
1.20551
2674
1.20544
2631
1.20536
2657
1.20529
2627
1.20522
2623
1.20514
2671
1.20507
2637
1.205
2615
1.20493
2692
1.20485
2665
1.20478
2740
1.20471
2594
1.20464
2597
1.20456
2649
1.20449
2626
1.20442
2620
1.20434
2633
1.20427
2626
1.2042
2673
1.20413
2598
1.20405
2657
1.20398
2597
1.20391
2651
1.20384
2634
1.20376
2565
1.20369
2594
1.20362
2666
1.20354
2579
1.20347
2685
1.2034
2627
1.20333
2661
1.20325
2651
1.20318
2567
1.20311
2554
1.20303
2700
1.20296
2518
1.20289
2653
1.20282
2665
1.20274
2654
1.20267
2653
1.2026
2538
1.20253
2590
1.20245
2690
1.20238
2707
1.20231
2701
1.20223
2634
1.20216
Survey/7
Not Specified
2017
12
11
13
13
15
0
15
Casa Info Follows
1
Calib M = 280.699 A = 284.5 BE ADD
1
annot regions Display 0.05 0.05 RGB(0,0,0) Font(12,18,0,0,Times New Roman)

4
CASA region (*O 1s*) (*Shirley*) 946.73224 959.639 0.78 1 0 0 299 542 275 9.3 (*O 1s*) 15.9994
CASA region (*C 1s*) (*Shirley*) 1189.6953 1207.139 0.278 1 0 0 299 542 275 9.3 (*C 1s*) 12.011
CASA region (*N 1s*) (*Shirley*) 1079.139 1089.6038 0.477 1 0 0 299 542 275 9.3 (*N 1s*) 14.0067
CASA region (*S 2p*) (*Shirley*) 1315.3652 1320.0126 0.668 1 0 0 299 542 275 9.3 (*S 2p*) 32.0648
0
   XPS     Spectrum    Lens Mode:Hybrid   Resolution:Pass energy 160   Iris(Aper):slot(Slot)
   Acqn. Time(s): 540        Sweeps: 2        Anode:Mono(Al (Mono))(150 W)   Step(meV): 500.0 
   Dwell Time(ms): 100        Charge Neutraliser :On   Acquired On :17/12/11 13:13:15
XPS
0
0
0
Mono(Al (Mono))
1486.69
150
1e+037
1e+037
6000
6000
1e+037
1e+037
FAT
160
1e+037
-4.803
0
1e+037
1e+037
1e+037
1e+037
Wide
None
-1
Kinetic Energy
eV
136.69
0.5
2
Intensity
d
Transmission
d
pulse counting
0.1
2
0
1e+037
1e+037
1e+037
0
5402
129
55024
25.7891
29.504
9737
27.0049
9657
27.0049
9635
27.0049
9580
27.0049
9580
27.0049
9511
27.0049
9602
27.0049
9636
27.0049
9652
27.0049
9535
27.0049
9557
27.0049
9450
27.0049
9534
27.0049
9588
27.0049
9599
27.0049
9659
27.0049
9509
27.0049
9532
27.0049
9618
27.0049
9602
27.0049
9515
27.0049
9652
27.0049
9567
27.0049
9616
27.0049
9573
27.0049
9662
27.0049
9607
27.0049
9594
27.0049
9603
27.0049
9657
27.0049
9671
27.0049
9725
27.0049
9763
27.0049
9640
27.0049
9616
27.0049
9645
27.0049
9538
27.0049
9546
27.0049
9547
27.0049
9606
27.0049
9587
27.0049
9498
27.0049
9502
27.0049
9595
27.0049
9425
27.0049
9608
27.0049
9522
27.0049
9675
27.0049
9653
27.0049
9773
27.0049
9676
27.0049
9416
27.0049
9763
27.0049
9624
27.0049
9514
27.0049
9569
27.0049
9590
27.0049
9464
27.0049
9653
27.0049
9735
27.0049
9579
27.0049
9548
27.0049
9608
27.0049
9677
27.0049
9572
27.0049
9550
27.0049
9535
27.0049
9465
27.0049
9546
27.0049
9631
27.0049
9645
27.0049
9658
27.0049
9477
27.0049
9600
27.0049
9532
27.0049
9550
27.0049
9416
27.0049
9600
27.0049
9607
27.0049
9564
27.0049
9440
27.0049
9566
27.0049
9662
27.0049
9525
27.0049
9619
27.0049
9628
27.0049
9729
27.0049
9784
27.0049
9830
27.0049
9961
27.0049
10025
27.0049
10010
27.0049
9917
27.0049
9921
27.0049
9997
27.0049
10026
27.0049
9920
27.0049
10038
27.0049
9972
27.0049
9925
27.0049
10043
27.0049
9960
27.0049
10029
27.0049
10081
27.0049
10009
27.0049
9952
27.0049
9998
27.0049
9944
27.0049
9796
27.0049
9966
27.0049
9960
27.0049
9986
27.0049
10119
27.0049
9976
27.0049
9980
27.0049
10017
27.0049
9962
27.0049
9976
27.0049
10026
27.0049
10118
27.0049
10103
27.0049
9967
27.0049
10117
27.0049
10160
27.0049
10146
27.0049
9929
27.0049
10134
27.0049
10086
27.0049
10187
27.0049
10081
27.0049
10182
27.0049
10185
27.0049
10345
27.0049
10326
27.0049
10268
27.0049
10302
27.0049
10280
27.0049
10248
27.0049
10345
27.0049
10366
27.0049
10162
27.0049
10337
27.0049
10364
27.0049
10165
27.0049
10258
27.0049
10186
27.0049
10269
27.0049
10373
27.005
10556
27.005
10337
27.0051
10418
27.0051
10453
27.0052
10336
27.0052
10344
27.0053
10466
27.0054
10358
27.0054
10310
27.0055
10402
27.0055
10534
27.0056
10420
27.0056
10508
27.0057
10515
27.0057
10408
27.0058
10582
27.0059
10614
27.0059
10734
27.006
10583
27.006
10669
27.0061
10811
27.0061
10718
27.0062
10753
27.0063
10802
27.0063
10832
27.0064
10698
27.0064
10881
27.0065
10843
27.0065
10796
27.0066
10773
27.0067
10754
27.0067
10849
27.0068
10930
27.0068
10751
27.0069
10817
27.0069
10902
27.007
10856
27.007
10810
27.0071
10829
27.0072
10790
27.0072
10932
27.0073
10973
27.0073
10932
27.0074
10927
27.0074
10986
27.0075
11021
27.0076
11002
27.0076
11097
27.0077
10976
27.0077
11080
27.0078
11245
27.0078
11213
27.0079
11292
27.008
11262
27.008
11322
27.0081
11305
27.0081
11333
27.0082
11392
27.0082
11322
27.0083
11307
27.0083
11436
27.0084
11424
27.0085
11529
27.0085
11537
27.0086
11537
27.0086
11497
27.0087
11735
27.0087
11841
27.0088
11783
27.0089
11720
27.0089
11772
27.009
11602
27.009
11720
27.0091
11678
27.0091
11935
27.0092
11820
27.0093
11703
27.0093
11648
27.0094
11684
27.0094
11762
27.0095
11699
27.0095
11750
27.0096
11854
27.0096
11714
27.0097
11530
27.0098
11725
27.0098
11739
27.0099
11590
27.0099
11841
27.01
11956
27.01
12045
27.0101
12077
27.0102
12146
27.0102
12244
27.0103
12477
27.0103
12415
27.0104
12526
27.0104
12565
27.0105
12603
27.0105
12783
27.0115
12875
27.0131
12853
27.0148
12744
27.0164
12944
27.018
13080
27.0197
12970
27.0213
12932
27.0229
12887
27.0246
12949
27.0262
12841
27.0278
12976
27.0295
12896
27.0311
12971
27.0327
12936
27.0344
12738
27.036
12758
27.0377
12797
27.0393
12705
27.0409
12677
27.0426
12436
27.0442
12205
27.0458
12227
27.0475
11964
27.0491
11689
27.0507
11770
27.0524
11711
27.054
11419
27.0556
11336
27.0573
11161
27.0589
10718
27.0605
10465
27.0622
10201
27.0638
9955
27.0655
9778
27.0671
9714
27.0687
9277
27.0704
9254
27.072
9011
27.0736
8730
27.0753
8500
27.0769
8203
27.0785
8144
27.0802
8005
27.0818
7770
27.0834
7617
27.0851
7444
27.0867
7337
27.0883
7237
27.09
7095
27.0916
6887
27.0933
6805
27.0949
6859
27.0965
6691
27.0982
6680
27.0998
6722
27.1014
6596
27.1031
6540
27.1047
6482
27.1063
6426
27.108
6442
27.1096
6613
27.1112
6482
27.1129
6451
27.1145
6434
27.1161
6517
27.1178
6458
27.1194
6444
27.1211
6432
27.1227
6341
27.1243
6392
27.126
6533
27.1276
6452
27.1292
6558
27.1309
6469
27.1325
6475
27.1341
6417
27.1358
6477
27.1374
6508
27.139
6449
27.1407
6408
27.1423
6505
27.1439
6460
27.1456
6497
27.1472
6490
27.1489
6683
27.1505
6552
27.1521
6402
27.1538
6408
27.1554
6530
27.157
6468
27.1587
6525
27.1603
6519
27.1619
6570
27.1636
6611
27.1652
6521
27.1668
6438
27.1685
6467
27.1701
6696
27.1717
6631
27.1734
6518
27.1731
6561
27.1714
6555
27.1697
6530
27.168
6664
27.1663
6679
27.1646
6667
27.1629
6521
27.1612
6522
27.1595
6631
27.1578
6626
27.1561
6595
27.1544
6655
27.1527
6624
27.151
6623
27.1493
6673
27.1476
6724
27.1459
6744
27.1442
6668
27.1425
6562
27.1407
6708
27.139
6705
27.1373
6649
27.1356
6754
27.1339
6615
27.1322
6645
27.1305
6837
27.1288
6697
27.1271
6740
27.1254
6791
27.1237
6827
27.122
6792
27.1203
6744
27.1186
6803
27.1169
6718
27.1152
6673
27.1135
6800
27.1118
6732
27.11
6623
27.1083
6729
27.1066
6772
27.1049
6674
27.1032
6719
27.1015
6766
27.0998
6841
27.0981
6864
27.0964
6714
27.0947
6716
27.093
6776
27.0913
6780
27.0896
6693
27.0879
6796
27.0862
6632
27.0845
6671
27.0828
6755
27.0811
6823
27.0793
6776
27.0776
6785
27.0759
6620
27.0742
6753
27.0725
6888
27.0708
6906
27.0691
6764
27.0674
6806
27.0657
6789
27.064
6836
27.0623
6817
27.0606
6799
27.0589
6902
27.0572
6905
27.0555
6825
27.0538
6952
27.0521
6831
27.0504
6886
27.0487
6881
27.0469
6852
27.0452
6809
27.0435
6819
27.0418
6914
27.0401
6841
27.0384
6940
27.0367
6824
27.035
6881
27.0333
6992
27.0316
6976
27.0299
6784
27.0282
6927
27.0265
6928
27.0248
6916
27.0231
6873
27.0214
6918
27.0197
6914
27.018
6959
27.0162
6957
27.0145
6989
27.0128
6969
27.0111
7006
27.0094
7045
27.0077
7091
27.006
6938
27.0043
7014
27.0023
7044
26.9999
6978
26.9976
7024
26.9953
7006
26.993
7064
26.9907
7021
26.9884
7025
26.9861
6937
26.9837
6952
26.9814
7001
26.9791
7088
26.9768
7065
26.9745
7116
26.9722
7062
26.9699
7138
26.9675
7098
26.9652
7200
26.9629
7079
26.9606
7112
26.9583
7076
26.956
7156
26.9536
7051
26.9513
7141
26.949
7085
26.9467
7165
26.9444
6993
26.9421
7059
26.9398
7134
26.9374
7196
26.9351
7198
26.9328
7082
26.9305
7188
26.9282
7166
26.9259
7176
26.9235
7110
26.9212
7142
26.9189
7206
26.9166
7125
26.9143
7150
26.912
7237
26.9097
7161
26.9073
7161
26.905
7296
26.9027
7197
26.9004
7225
26.8981
7341
26.8958
7370
26.8935
7315
26.8911
7336
26.8888
7195
26.8865
7272
26.8842
7432
26.8819
7416
26.8796
7205
26.8772
7362
26.8749
7312
26.8726
7253
26.8703
7213
26.868
7183
26.8657
6991
26.8634
7202
26.861
7133
26.8587
7156
26.8564
7158
26.8541
7057
26.8518
7154
26.8495
7066
26.8471
7228
26.8448
7109
26.8425
7207
26.8402
7031
26.8379
7123
26.8356
7145
26.8333
7130
26.8309
7240
26.8286
7250
26.8263
7184
26.824
7050
26.8217
7162
26.8194
7110
26.8171
7263
26.8147
7314
26.8124
7220
26.8101
7149
26.8078
7303
26.8055
7306
26.8032
7367
26.8008
7188
26.7985
7240
26.7962
7112
26.7939
7430
26.7916
7253
26.7893
7208
26.787
7189
26.7846
7257
26.7823
7240
26.78
7273
26.7777
7278
26.7754
7216
26.7731
7250
26.7707
7266
26.7682
7289
26.7657
7122
26.7633
7114
26.7608
7373
26.7584
7353
26.7559
7327
26.7534
7457
26.751
7373
26.7485
7458
26.7461
7424
26.7436
7319
26.7411
7392
26.7387
7424
26.7362
7480
26.7337
7465
26.7313
7503
26.7288
7398
26.7264
7497
26.7239
7410
26.7214
7362
26.719
7499
26.7165
7459
26.7141
7424
26.7116
7406
26.7091
7365
26.7067
7301
26.7042
7426
26.7018
7479
26.6993
7388
26.6968
7552
26.6944
7471
26.6919
7446
26.6894
7390
26.687
7413
26.6845
7539
26.6821
7404
26.6796
7401
26.6771
7368
26.6747
7494
26.6722
7506
26.6698
7482
26.6673
7522
26.6648
7609
26.6624
7558
26.6599
7574
26.6574
7591
26.655
7570
26.6525
7567
26.6501
7517
26.6476
7503
26.6451
7622
26.6427
7554
26.6402
7578
26.6378
7586
26.6353
7558
26.6328
7417
26.6304
7664
26.6279
7619
26.6255
7659
26.623
7705
26.6205
7628
26.6181
7652
26.6156
7657
26.6131
7642
26.6107
7808
26.6082
7763
26.6058
7815
26.6033
7748
26.6008
7793
26.5984
7794
26.5959
7819
26.5935
7775
26.591
7741
26.5885
7733
26.5861
7586
26.5836
7538
26.5812
7659
26.5787
7826
26.5762
7856
26.5738
7667
26.5713
7759
26.5688
7937
26.5664
7839
26.5639
7912
26.5615
7818
26.559
7789
26.5565
7687
26.5541
7737
26.5516
7778
26.5492
7697
26.5467
7815
26.5442
7778
26.5418
7841
26.5393
7765
26.5368
7803
26.5344
7949
26.5319
7876
26.5295
7865
26.527
7828
26.5256
7868
26.5249
7828
26.5243
7902
26.5236
7924
26.523
7985
26.5223
8013
26.5217
7839
26.521
7813
26.5204
8080
26.5198
8026
26.5191
8052
26.5185
7952
26.5178
8045
26.5172
7994
26.5165
7977
26.5159
8095
26.5153
8086
26.5146
8166
26.514
7924
26.5133
8022
26.5127
8133
26.512
8114
26.5114
8168
26.5107
8131
26.5101
8234
26.5095
8226
26.5088
8078
26.5082
8018
26.5075
8141
26.5069
8320
26.5062
8229
26.5056
8195
26.5049
8149
26.5043
8090
26.5037
8143
26.503
8190
26.5024
8213
26.5017
8213
26.5011
8345
26.5004
8178
26.4998
8160
26.4992
8210
26.4985
8252
26.4979
8334
26.4972
8404
26.4966
8379
26.4959
8318
26.4953
8341
26.4946
8476
26.494
8427
26.4934
8447
26.4927
8373
26.4921
8528
26.4914
8717
26.4908
8771
26.4901
8744
26.4895
8654
26.4888
8674
26.4882
8839
26.4876
8804
26.4869
8702
26.4863
8761
26.4856
8782
26.485
8848
26.4843
8779
26.4837
8860
26.483
8869
26.4824
8780
26.4818
8607
26.4811
8614
26.4805
8496
26.4798
8305
26.4792
8463
26.4785
8403
26.4779
8277
26.4773
8334
26.4766
8329
26.476
8309
26.4753
8138
26.4747
8131
26.474
8256
26.4734
8143
26.4727
8126
26.4721
8198
26.4715
8121
26.4708
8084
26.4702
7983
26.4695
8090
26.4689
8203
26.4682
8167
26.4676
8301
26.4669
8326
26.4663
8312
26.4657
8419
26.465
8477
26.4644
8531
26.4637
8481
26.4631
8788
26.4624
8917
26.4618
8914
26.461
9056
26.4601
9277
26.4592
9268
26.4583
9294
26.4574
9588
26.4565
9675
26.4556
9612
26.4547
9664
26.4539
9657
26.453
9653
26.4521
9590
26.4512
9516
26.4503
9464
26.4494
9303
26.4485
9186
26.4476
9154
26.4467
8937
26.4458
9006
26.4449
8628
26.444
8529
26.4431
8452
26.4422
8244
26.4413
8130
26.4404
8026
26.4395
7860
26.4387
7753
26.4378
7586
26.4369
7350
26.436
7341
26.4351
7143
26.4342
7216
26.4333
7056
26.4324
6915
26.4315
6912
26.4306
6844
26.4297
6864
26.4288
6908
26.4279
6766
26.427
6701
26.4261
6858
26.4252
6876
26.4243
6876
26.4234
6711
26.4226
6734
26.4217
6742
26.4208
6702
26.4199
6732
26.419
6713
26.4181
6750
26.4172
6757
26.4163
6687
26.4154
6735
26.4145
6776
26.4136
6785
26.4127
6739
26.4118
6699
26.4109
6690
26.41
6750
26.4091
6854
26.4082
6718
26.4074
6788
26.4065
6667
26.4056
6728
26.4047
6826
26.4038
6834
26.4029
6645
26.402
6854
26.4011
6903
26.4002
6803
26.3993
6836
26.3984
6814
26.3975
6783
26.3966
6715
26.3957
6805
26.3948
6831
26.3939
6791
26.393
6760
26.3921
6810
26.3913
6731
26.3904
6854
26.3895
6771
26.3886
6818
26.3877
6904
26.3868
6889
26.3859
6859
26.385
6812
26.3841
6914
26.3832
6984
26.3823
6906
26.3814
6836
26.3805
6851
26.3796
6861
26.3787
6799
26.3778
6868
26.3769
6922
26.376
6859
26.3752
6854
26.3743
6908
26.3734
6871
26.3725
6870
26.3723
6929
26.3727
6868
26.3731
6892
26.3735
6888
26.3738
6856
26.3742
6962
26.3746
6895
26.375
6833
26.3754
6855
26.3758
6897
26.3762
6805
26.3766
6990
26.3769
6984
26.3773
6969
26.3777
6925
26.3781
6921
26.3785
6960
26.3789
6935
26.3793
6922
26.3797
7181
26.38
6885
26.3804
6923
26.3808
6923
26.3812
6991
26.3816
6887
26.382
6965
26.3824
6985
26.3828
7099
26.3831
7165
26.3835
7210
26.3839
7106
26.3843
7069
26.3847
6982
26.3851
7049
26.3855
6948
26.3859
7076
26.3862
7014
26.3866
6972
26.387
6992
26.3874
7085
26.3878
7019
26.3882
7036
26.3886
6971
26.389
7047
26.3893
7164
26.3897
7055
26.3901
7153
26.3905
7098
26.3909
7115
26.3913
6977
26.3917
7078
26.3921
7025
26.3924
7031
26.3928
7108
26.3932
7023
26.3936
7031
26.394
7062
26.3944
7109
26.3948
7027
26.3952
7105
26.3955
7000
26.3959
7037
26.3963
7045
26.3967
7052
26.3971
7051
26.3975
6941
26.3979
7011
26.3983
7208
26.3986
7099
26.399
7177
26.3994
7172
26.3998
7104
26.4002
7167
26.4006
7175
26.401
7116
26.4014
7182
26.4017
7208
26.4021
7211
26.4025
7340
26.4029
7019
26.4033
7065
26.4037
7170
26.4041
7249
26.4045
7248
26.4048
7023
26.4052
6966
26.4056
7114
26.406
7253
26.4064
7265
26.4068
7247
26.4072
7142
26.4076
7277
26.4079
7012
26.4083
7195
26.4087
7261
26.4091
7254
26.4095
7311
26.4099
7250
26.4103
7137
26.4107
7349
26.4113
7220
26.4123
7213
26.4132
7123
26.4141
7202
26.4151
7184
26.416
7240
26.4169
7264
26.4179
7184
26.4188
7229
26.4197
7173
26.4207
7293
26.4216
7246
26.4225
7296
26.4234
7376
26.4244
7256
26.4253
7179
26.4262
7244
26.4272
7243
26.4281
7352
26.429
7516
26.43
7371
26.4309
7303
26.4318
7312
26.4328
7328
26.4337
7260
26.4346
7147
26.4356
7202
26.4365
7396
26.4374
7203
26.4383
7276
26.4393
7312
26.4402
7303
26.4411
7429
26.4421
7380
26.443
7450
26.4439
7348
26.4449
7336
26.4458
7388
26.4467
7439
26.4477
7458
26.4486
7321
26.4495
7393
26.4505
7406
26.4514
7398
26.4523
7298
26.4532
7287
26.4542
7483
26.4551
7497
26.456
7487
26.457
7422
26.4579
7371
26.4588
7488
26.4598
7433
26.4607
7412
26.4616
7410
26.4626
7336
26.4635
7419
26.4644
7407
26.4654
7423
26.4663
7526
26.4672
7373
26.4681
7662
26.4691
7420
26.47
7467
26.4709
7408
26.4719
7384
26.4728
7495
26.4737
7508
26.4747
7495
26.4756
7486
26.4765
7430
26.4775
7466
26.4784
7511
26.4793
7473
26.4803
7394
26.4812
7624
26.4821
7467
26.483
7517
26.484
7485
26.4849
7479
26.4858
7547
26.4868
7546
26.4877
7522
26.4886
7571
26.4896
7468
26.4905
7415
26.4914
7531
26.4924
7581
26.4933
7543
26.4942
7589
26.4952
7540
26.4961
7656
26.497
7592
26.4979
7587
26.4989
7645
26.4998
7557
26.5007
7454
26.5017
7682
26.5026
7605
26.5035
7603
26.5032
7680
26.5018
7750
26.5005
7756
26.4991
7552
26.4977
7584
26.4964
7658
26.495
7692
26.4937
7586
26.4923
7576
26.4909
7599
26.4896
7608
26.4882
7617
26.4868
7581
26.4855
7702
26.4841
7731
26.4828
7586
26.4814
7694
26.48
7577
26.4787
7560
26.4773
7593
26.476
7604
26.4746
7546
26.4732
7679
26.4719
7654
26.4705
7685
26.4691
7536
26.4678
7748
26.4664
7696
26.4651
7631
26.4637
7712
26.4623
7570
26.461
7721
26.4596
7693
26.4583
7726
26.4569
7669
26.4555
7720
26.4542
7707
26.4528
7685
26.4515
7703
26.4501
7743
26.4487
7675
26.4474
7738
26.446
7627
26.4446
7600
26.4433
7674
26.4419
7670
26.4406
7722
26.4392
7784
26.4378
7652
26.4365
7770
26.4351
7707
26.4338
7714
26.4324
7737
26.431
7711
26.4297
7744
26.4283
7761
26.427
7860
26.4256
7901
26.4242
7825
26.4229
7786
26.4215
7740
26.4201
7785
26.4188
7749
26.4174
7859
26.4161
7874
26.4147
7904
26.4133
7824
26.412
7904
26.4106
7772
26.4093
7667
26.4079
7727
26.4065
7827
26.4052
7964
26.4038
7764
26.4024
7809
26.4011
7860
26.3997
7882
26.3984
7877
26.397
7810
26.3956
7823
26.3942
7638
26.3928
7862
26.3914
7804
26.3899
7729
26.3885
7833
26.387
7926
26.3856
7756
26.3841
7775
26.3827
7806
26.3813
8016
26.3798
7935
26.3784
7979
26.3769
7917
26.3755
7852
26.3741
7902
26.3726
7823
26.3712
7801
26.3697
7945
26.3683
7958
26.3669
7927
26.3654
7968
26.364
7827
26.3625
7736
26.3611
8020
26.3597
7985
26.3582
7899
26.3568
7889
26.3553
7935
26.3539
7898
26.3524
7868
26.351
7974
26.3496
7965
26.3481
7950
26.3467
8088
26.3452
7939
26.3438
7932
26.3424
7985
26.3409
7973
26.3395
8070
26.338
8038
26.3366
7898
26.3352
7919
26.3337
7953
26.3323
7826
26.3308
8021
26.3294
8090
26.328
8198
26.3265
7922
26.3251
7867
26.3236
8152
26.3222
8082
26.3208
8127
26.3193
8118
26.3179
7937
26.3164
8118
26.315
8141
26.3135
8046
26.3121
8142
26.3107
8162
26.3092
8035
26.3078
7899
26.3063
8051
26.3049
8025
26.3035
8128
26.302
8116
26.3006
8043
26.2991
8052
26.2977
8189
26.2963
8323
26.2948
8117
26.2934
8165
26.2919
8166
26.2905
8122
26.2891
8005
26.2876
8021
26.2862
8009
26.2847
8056
26.2833
8052
26.2818
8067
26.2804
8177
26.279
8076
26.2775
8248
26.2761
8132
26.2746
8189
26.2732
8198
26.2718
8237
26.2703
8250
26.2689
8235
26.2674
8246
26.266
8208
26.2646
8198
26.2631
8308
26.2617
8134
26.2602
8085
26.2588
8228
26.2574
8172
26.2559
8248
26.2545
8197
26.253
8295
26.2516
8260
26.2501
8228
26.2487
8202
26.2473
8230
26.2458
8317
26.2444
8252
26.2429
8196
26.2415
8146
26.2401
8242
26.2386
8256
26.2372
8305
26.2357
8210
26.2343
8200
26.2329
8273
26.2314
8302
26.23
8228
26.2285
8248
26.2271
8125
26.2257
8207
26.2242
8298
26.2228
8189
26.2231
8284
26.2249
8309
26.2266
8288
26.2283
8273
26.2301
8208
26.2318
8352
26.2336
8377
26.2353
8321
26.237
8406
26.2388
8509
26.2405
8331
26.2423
8266
26.244
8391
26.2458
8333
26.2475
8342
26.2492
8372
26.251
8428
26.2527
8365
26.2545
8398
26.2562
8405
26.2579
8201
26.2597
8307
26.2614
8386
26.2632
8367
26.2649
8405
26.2667
8393
26.2684
8417
26.2701
8413
26.2719
8408
26.2736
8493
26.2754
8477
26.2771
8428
26.2788
8478
26.2806
8379
26.2823
8403
26.2841
8460
26.2858
8424
26.2876
8470
26.2893
8326
26.291
8343
26.2928
8498
26.2945
8547
26.2963
8405
26.298
8284
26.2997
8365
26.3015
8433
26.3032
8415
26.305
8460
26.3067
8331
26.3085
8431
26.3102
8517
26.3119
8381
26.3137
8561
26.3154
8536
26.3172
8446
26.3189
8616
26.3206
8472
26.3224
8564
26.3241
8423
26.3259
8397
26.3276
8624
26.3294
8535
26.3311
8339
26.3328
8578
26.3346
8571
26.3363
8498
26.3381
8547
26.3398
8514
26.3415
8638
26.3433
8589
26.345
8527
26.3468
8484
26.3485
8616
26.3503
8530
26.352
8557
26.3537
8567
26.3555
8572
26.3572
8512
26.359
8531
26.3607
8638
26.3624
8529
26.3642
8561
26.3659
8481
26.3677
8564
26.3694
8575
26.3712
8575
26.3729
8653
26.3746
8561
26.3764
8656
26.3781
8656
26.3799
8636
26.3816
8601
26.3833
8569
26.3851
8652
26.3868
8651
26.3886
8563
26.3903
8611
26.3921
8628
26.3938
8633
26.3955
8684
26.3957
8560
26.3947
8645
26.3937
8687
26.3926
8642
26.3916
8740
26.3906
8635
26.3896
8700
26.3885
8622
26.3875
8790
26.3865
8670
26.3854
8650
26.3844
8662
26.3834
8669
26.3824
8696
26.3813
8666
26.3803
8583
26.3793
8740
26.3782
8748
26.3772
8662
26.3762
8873
26.3752
8783
26.3741
8716
26.3731
8695
26.3721
8775
26.3711
8725
26.37
8762
26.369
8742
26.368
8744
26.3669
8835
26.3659
8906
26.3649
8805
26.3639
8864
26.3628
8819
26.3618
8843
26.3608
8760
26.3597
8833
26.3587
8777
26.3577
8729
26.3567
8655
26.3556
8875
26.3546
8839
26.3536
8628
26.3525
8580
26.3515
8823
26.3505
8783
26.3495
8780
26.3484
8798
26.3474
8818
26.3464
8754
26.3454
8896
26.3443
8834
26.3433
8827
26.3423
8856
26.3412
8894
26.3402
8818
26.3392
8790
26.3382
8981
26.3371
8980
26.3361
8928
26.3351
8837
26.334
9019
26.333
8927
26.332
8920
26.331
8974
26.3299
8976
26.3289
8820
26.3279
8895
26.3268
8812
26.3258
8917
26.3248
8878
26.3238
9006
26.3227
8974
26.3217
8866
26.3207
8999
26.3196
8899
26.3186
8705
26.3176
8770
26.3166
9122
26.3155
9087
26.3145
8956
26.3135
9053
26.3125
9017
26.3114
9049
26.3104
9061
26.3094
8865
26.3083
8848
26.3073
8986
26.3063
9134
26.3053
9117
26.3042
9031
26.3032
9081
26.3022
9053
26.3011
9144
26.3001
8944
26.2991
8975
26.2981
8968
26.297
9120
26.296
8967
26.295
8995
26.2939
8888
26.2929
9058
26.2919
8997
26.2909
9090
26.2898
8992
26.2888
8961
26.2878
8891
26.2868
8886
26.2857
8922
26.2847
9128
26.2837
9083
26.2826
9122
26.2816
9066
26.2806
9008
26.2796
9095
26.2785
9119
26.2775
9296
26.2765
9117
26.2754
9030
26.2744
9188
26.2734
9285
26.2731
9245
26.2735
9088
26.2738
9078
26.2741
9153
26.2745
9234
26.2748
9143
26.2751
9040
26.2755
9017
26.2758
9188
26.2761
9107
26.2765
9347
26.2768
9291
26.2771
9184
26.2775
9197
26.2778
9176
26.2782
9189
26.2785
9212
26.2788
9250
26.2792
9357
26.2795
9189
26.2798
9157
26.2802
9160
26.2805
9365
26.2808
9190
26.2812
9126
26.2815
9105
26.2818
9163
26.2822
9152
26.2825
9353
26.2828
9325
26.2832
9193
26.2835
9259
26.2839
9266
26.2842
9130
26.2845
9194
26.2849
9245
26.2852
9475
26.2855
9342
26.2859
9319
26.2862
9178
26.2865
9251
26.2869
9346
26.2872
9372
26.2875
9481
26.2879
9269
26.2882
9107
26.2885
9267
26.2889
9369
26.2892
9371
26.2896
9406
26.2899
9283
26.2902
9375
26.2906
9415
26.2909
9371
26.2912
9369
26.2916
9449
26.2919
9420
26.2922
9508
26.2926
9401
26.2929
9241
26.2932
9320
26.2936
9387
26.2939
9373
26.2942
9508
26.2946
9426
26.2949
9360
26.2953
9578
26.2956
9574
26.2959
9545
26.2963
9388
26.2966
9404
26.2969
9413
26.2973
9506
26.2976
9590
26.2979
9595
26.2983
9467
26.2986
9502
26.2989
9301
26.2993
9476
26.2996
9542
26.3006
9264
26.3021
9501
26.3035
9405
26.305
9490
26.3065
9550
26.3079
9575
26.3094
9645
26.3109
9538
26.3124
9417
26.3138
9494
26.3153
9459
26.3168
9527
26.3183
9493
26.3197
9491
26.3212
9571
26.3227
9477
26.3241
9555
26.3256
9523
26.3271
9675
26.3286
9441
26.33
9547
26.3315
9609
26.333
9388
26.3345
9442
26.3359
9514
26.3374
9579
26.3389
9563
26.3403
9729
26.3418
9748
26.3433
9623
26.3448
9642
26.3462
9697
26.3477
9635
26.3492
9712
26.3506
9707
26.3521
9772
26.3536
9677
26.3551
9780
26.3565
9895
26.358
10004
26.3595
10047
26.361
10002
26.3624
10118
26.3639
9999
26.3654
9984
26.3668
10030
26.3683
9993
26.3698
9809
26.3713
9939
26.3727
9843
26.3742
9809
26.3757
9713
26.3772
9643
26.3786
9685
26.3801
9705
26.3816
9651
26.383
9441
26.3845
9656
26.386
9467
26.3875
9362
26.3889
9279
26.3904
9316
26.3919
9277
26.3933
9171
26.3948
9107
26.3963
9051
26.3978
8978
26.3992
9238
26.4007
9151
26.4022
8969
26.4037
8830
26.4051
8857
26.4066
8849
26.4081
8672
26.4095
8758
26.411
8743
26.4125
8743
26.414
8734
26.4154
8786
26.4169
8838
26.4184
8811
26.4199
8835
26.4213
8973
26.4228
8999
26.4243
9217
26.4257
9538
26.4272
9647
26.4287
10089
26.4302
10473
26.4316
11147
26.4331
12061
26.4346
13604
26.436
15890
26.4375
18074
26.439
19317
26.4405
19610
26.4419
18236
26.4434
16293
26.4449
13724
26.4464
11411
26.4478
9704
26.4493
8711
26.4508
8196
26.4522
8129
26.4537
8070
26.4552
7969
26.4567
7871
26.4581
7747
26.4596
7743
26.4611
7775
26.4626
7884
26.464
7751
26.4655
7796
26.467
7727
26.4684
7753
26.4699
7821
26.4714
7693
26.4729
7522
26.4743
7739
26.4758
7930
26.4753
7755
26.4734
7824
26.4714
7859
26.4694
7934
26.4674
7854
26.4654
7872
26.4635
7856
26.4615
7654
26.4595
7731
26.4575
7777
26.4556
7748
26.4536
7798
26.4516
7750
26.4496
7844
26.4476
7903
26.4457
7769
26.4437
7859
26.4417
7674
26.4397
7924
26.4377
7840
26.4358
7871
26.4338
8024
26.4318
7979
26.4298
7880
26.4278
7844
26.4259
7971
26.4239
8117
26.4219
8001
26.4199
7741
26.4179
7858
26.416
8021
26.414
7871
26.412
7849
26.41
7873
26.4081
7970
26.4061
8068
26.4041
8019
26.4021
7833
26.4001
7777
26.3982
7855
26.3962
7870
26.3942
8039
26.3922
8010
26.3902
7983
26.3883
7983
26.3863
8026
26.3843
8054
26.3823
8132
26.3803
8014
26.3784
7864
26.3764
8017
26.3744
8189
26.3724
7856
26.3704
7931
26.3685
7929
26.3665
8037
26.3645
8107
26.3625
8113
26.3606
7978
26.3586
7988
26.3566
7851
26.3546
7976
26.3526
8091
26.3507
8054
26.3487
8045
26.3467
8127
26.3447
8059
26.3427
8086
26.3408
8147
26.3388
8171
26.3368
7976
26.3348
8157
26.3328
8118
26.3309
7989
26.3289
8013
26.3269
8159
26.3249
7958
26.323
8141
26.321
8166
26.319
8026
26.3165
8044
26.3135
8054
26.3106
8179
26.3076
8095
26.3047
8022
26.3017
8076
26.2988
8161
26.2958
8072
26.2929
8056
26.2899
8126
26.2869
8205
26.284
8151
26.281
8216
26.2781
8177
26.2751
8178
26.2722
8226
26.2692
8150
26.2663
8131
26.2633
8130
26.2604
8166
26.2574
8245
26.2545
8154
26.2515
8392
26.2486
8189
26.2456
7995
26.2427
8066
26.2397
8049
26.2368
8108
26.2338
8243
26.2309
8215
26.2279
8305
26.225
8282
26.222
8268
26.2191
8280
26.2161
8247
26.2132
8225
26.2102
8222
26.2072
8239
26.2043
8332
26.2013
8340
26.1984
8349
26.1954
8390
26.1925
8441
26.1895
8429
26.1866
8347
26.1836
8164
26.1807
8334
26.1777
8344
26.1748
8333
26.1718
8360
26.1689
8263
26.1659
8178
26.163
8381
26.16
8276
26.1571
8166
26.1541
8311
26.1512
8517
26.1482
8238
26.1453
8230
26.1423
8412
26.1394
8406
26.1364
8381
26.1335
8358
26.1305
8325
26.1275
8449
26.1246
8268
26.1216
8416
26.1187
8502
26.1157
8347
26.1128
8453
26.1098
8317
26.1069
8428
26.1039
8483
26.101
8478
26.098
8365
26.0951
8391
26.0921
8577
26.0892
8384
26.0862
8354
26.0833
8499
26.0803
8399
26.0774
8504
26.0744
8553
26.0715
8556
26.0685
8440
26.0656
8541
26.0626
8521
26.0597
8446
26.0567
8489
26.0538
8470
26.0508
8537
26.0478
8585
26.0449
8448
26.0419
8425
26.039
8483
26.036
8646
26.0331
8532
26.0301
8447
26.0272
8406
26.0242
8534
26.0213
8660
26.0183
8429
26.0154
8457
26.0125
8573
26.0095
8566
26.0066
8455
26.0037
8521
26.0007
8566
25.9978
8507
25.9948
8499
25.9919
8752
25.989
8736
25.986
8656
25.9831
8619
25.9801
8632
25.9772
8467
25.9743
8549
25.9713
8715
25.9684
8659
25.9654
8628
25.9625
8529
25.9596
8565
25.9566
8590
25.9537
8581
25.9507
8605
25.9478
8541
25.9449
8617
25.9419
8646
25.939
8717
25.936
8665
25.9331
8586
25.9302
8644
25.9272
8663
25.9243
8643
25.9214
8610
25.9184
8580
25.9155
8464
25.9125
8490
25.9096
8673
25.9067
8617
25.9037
8645
25.9008
8837
25.8978
8739
25.8949
8615
25.892
8554
25.889
8617
25.8861
8665
25.8831
8696
25.8802
8940
25.8773
9057
25.8743
9132
25.8714
9116
25.8684
9292
25.8655
9189
25.8626
9258
25.8596
9221
25.8567
9287
25.8538
9568
25.8508
9593
25.8479
9847
25.8449
9872
25.842
9732
25.8391
9309
25.8361
9019
25.8332
8943
25.8302
8700
25.8273
8626
25.8244
8701
25.8214
8737
25.8185
8775
25.8155
8667
25.8126
8634
25.8097
8583
25.8067
8624
25.8038
8709
25.8008
8711
25.7979
8721
25.795
8718
25.792
8794
25.7891
8887
25.7909
8817
25.7963
8783
25.8018
8894
25.8073
8824
25.8128
8780
25.8183
8788
25.8237
8866
25.8292
8747
25.8347
8820
25.8402
8819
25.8457
8851
25.8511
8793
25.8566
8830
25.8621
8729
25.8676
8905
25.8731
8879
25.8785
8979
25.884
8921
25.8895
8904
25.895
8841
25.9004
8835
25.9059
8953
25.9114
8932
25.9169
9056
25.9224
8836
25.9278
8946
25.9333
8957
25.9388
8856
25.9443
8910
25.9498
9053
25.9552
9082
25.9607
9164
25.9662
9119
25.9717
9002
25.9772
9002
25.9826
8899
25.9881
8882
25.9936
8929
25.9991
8997
26.0046
9026
26.01
8942
26.0155
8958
26.021
9097
26.0265
9048
26.0319
9175
26.0374
9167
26.0429
9067
26.0484
9147
26.0539
9128
26.0593
9124
26.0648
9265
26.0703
9203
26.0758
9112
26.0813
9161
26.0867
9097
26.0922
9116
26.0977
9138
26.1032
9080
26.1087
9007
26.1141
9169
26.1196
9288
26.1251
9141
26.1306
9288
26.1361
9201
26.1415
9103
26.147
9295
26.1525
9244
26.158
9207
26.1635
9405
26.1689
9270
26.1744
9271
26.1799
9389
26.1854
9450
26.1908
9343
26.1963
9477
26.2018
9334
26.2073
9439
26.2128
9428
26.2182
9441
26.2237
9405
26.2292
9549
26.2347
9484
26.2402
9633
26.2456
9773
26.2511
9842
26.2566
9770
26.2621
9591
26.2676
9628
26.273
9665
26.2785
9526
26.284
9587
26.2895
9517
26.295
9586
26.3004
9612
26.3059
9484
26.3114
9683
26.3169
9811
26.3223
9650
26.3278
9488
26.3333
9648
26.3388
9403
26.3443
9433
26.3497
9556
26.3552
9580
26.3607
9575
26.3662
9477
26.3717
9321
26.3771
9394
26.3826
9409
26.3881
9410
26.3936
9455
26.3991
9327
26.4045
9248
26.41
9384
26.4155
9289
26.421
9201
26.4265
9133
26.4319
9202
26.4374
9154
26.4429
9183
26.4484
9101
26.4539
9090
26.4593
9022
26.4648
9229
26.4703
9349
26.4758
9277
26.4812
9512
26.4867
9533
26.4922
9616
26.4977
9533
26.5032
9466
26.5086
9530
26.5141
9722
26.5196
9802
26.5251
9834
26.5306
9972
26.536
10223
26.5415
10173
26.547
10066
26.5525
10241
26.558
10437
26.5634
10439
26.5689
10431
26.5744
10480
26.5799
10411
26.5854
10669
26.5908
10703
26.5963
10725
26.6018
10711
26.6073
10746
26.6127
10867
26.6182
10834
26.6237
10936
26.6292
10911
26.6347
10916
26.6401
10835
26.6456
10739
26.6511
10599
26.6566
10472
26.6621
10422
26.6675
10179
26.673
10090
26.6785
9684
26.684
9503
26.6895
9381
26.6949
9112
26.7004
8782
26.7059
8597
26.7114
8326
26.7169
8313
26.7223
7822
26.7278
7530
26.7333
7345
26.7388
7069
26.7443
6787
26.7497
6534
26.7552
6438
26.7607
6185
26.7662
5892
26.7716
5702
26.7768
5582
26.7816
5499
26.7864
5334
26.7913
5314
26.7961
5293
26.8009
5292
26.8058
5253
26.8106
5323
26.8154
5429
26.8203
5660
26.8251
5830
26.8299
6050
26.8348
6378
26.8396
6736
26.8444
7138
26.8493
7578
26.8541
8148
26.8589
8900
26.8638
9768
26.8686
10606
26.8734
11045
26.8783
11610
26.8831
11977
26.8879
12785
26.8928
14246
26.8976
15750
26.9024
17956
26.9073
21402
26.9121
28401
26.9169
42209
26.9218
55024
26.9266
52339
26.9314
38020
26.9363
20467
26.9411
7304
26.9459
2796
26.9507
1799
26.9556
1435
26.9604
1196
26.9652
1052
26.9701
910
26.9749
806
26.9797
796
26.9846
720
26.9894
680
26.9942
636
26.9991
589
27.0039
597
27.0087
558
27.0136
529
27.0184
517
27.0232
544
27.0281
544
27.0329
527
27.0377
539
27.0426
513
27.0474
518
27.0522
485
27.0571
496
27.0619
513
27.0667
493
27.0716
496
27.0764
499
27.0812
491
27.0861
513
27.0909
538
27.0957
476
27.1006
482
27.1054
484
27.1102
489
27.1151
465
27.1199
510
27.1247
514
27.1296
523
27.1344
521
27.1392
476
27.1441
465
27.1489
475
27.1537
483
27.1586
486
27.1634
484
27.1682
465
27.1731
483
27.1779
472
27.1827
484
27.1876
508
27.1924
487
27.1972
471
27.2021
498
27.2069
504
27.2117
463
27.2166
501
27.2214
494
27.2262
484
27.2311
450
27.2359
468
27.2407
509
27.2456
499
27.2504
492
27.2552
540
27.2579
493
27.2589
503
27.26
493
27.261
470
27.262
448
27.263
464
27.264
515
27.265
450
27.2661
478
27.2671
462
27.2681
496
27.2691
497
27.2701
480
27.2711
459
27.2722
516
27.2732
486
27.2742
455
27.2752
439
27.2762
459
27.2772
502
27.2783
506
27.2793
504
27.2803
512
27.2813
437
27.2823
457
27.2833
461
27.2844
463
27.2854
485
27.2864
453
27.2874
507
27.2884
502
27.2894
525
27.2905
516
27.2915
548
27.2925
569
27.2935
567
27.2945
566
27.2955
538
27.2966
514
27.2976
510
27.2986
480
27.2996
465
27.3006
493
27.3016
495
27.3027
519
27.3037
441
27.3047
454
27.3057
436
27.3067
427
27.3077
449
27.3088
500
27.3098
483
27.3108
480
27.3118
452
27.3128
469
27.3138
452
27.3149
484
27.3159
457
27.3169
482
27.3179
476
27.3189
448
27.3199
489
27.321
474
27.322
478
27.323
458
27.324
451
27.325
461
27.326
480
27.3271
464
27.3281
488
27.3291
449
27.3301
427
27.3311
472
27.3321
482
27.3332
467
27.3342
487
27.3352
500
27.3362
444
27.3372
473
27.3382
458
27.3393
462
27.3403
443
27.3413
442
27.3423
449
27.3433
481
27.3443
436
27.3454
441
27.3464
456
27.3474
455
27.3484
466
27.3494
452
27.3504
452
27.3515
474
27.3525
462
27.3535
481
27.3545
475
27.3555
469
27.3565
470
27.3576
503
27.3586
471
27.3596
453
27.3606
480
27.3616
504
27.3626
487
27.3637
455
27.3647
476
27.3657
421
27.3667
439
27.3677
443
27.3687
455
27.3698
515
27.3708
467
27.3718
471
27.3728
485
27.3738
492
27.3748
508
27.3759
513
27.3769
543
27.3779
486
27.3789
459
27.3785
469
27.3771
450
27.3756
475
27.3741
470
27.3726
493
27.3711
441
27.3696
444
27.3682
471
27.3667
464
27.3652
441
27.3637
473
27.3622
514
27.3608
459
27.3593
470
27.3578
437
27.3563
482
27.3548
470
27.3534
462
27.3519
466
27.3504
451
27.3489
464
27.3474
465
27.346
457
27.3445
462
27.343
425
27.3415
462
27.34
502
27.3386
462
27.3371
503
27.3356
467
27.3341
477
27.3326
459
27.3312
457
27.3297
471
27.3282
466
27.3267
472
27.3252
494
27.3238
472
27.3223
521
27.3208
529
27.3193
579
27.3178
585
27.3164
618
27.3149
590
27.3134
601
27.3119
536
27.3104
474
27.309
469
27.3075
500
27.306
491
27.3045
442
27.303
434
27.3016
466
27.3001
448
27.2986
488
27.2971
447
27.2956
448
27.2942
475
27.2927
453
27.2912
446
27.2897
427
27.2882
447
27.2867
437
27.2853
448
27.2838
459
27.2823
456
27.2808
454
27.2793
477
27.2779
466
27.2764
483
27.2749
462
27.2734
488
27.2719
481
27.2705
478
27.269
463
27.2675
482
27.266
475
27.2645
449
27.2631
414
27.2616
441
27.2601
475
27.2586
479
27.2571
465
27.2557
476
27.2542
443
27.2527
429
27.2512
441
27.2497
454
27.2483
459
27.2468
452
27.2453
450
27.2438
466
27.2423
435
27.2409
449
27.2394
456
27.2379
455
27.2364
410
27.2349
451
27.2335
469
27.232
470
27.2305
436
27.229
461
27.2275
457
27.2261
449
27.2246
477
27.2231
474
27.2216
455
27.2201
449
27.2187
455
27.2172
481
27.2157
473
27.2142
457
27.2197
465
27.2307
486
27.2417
424
27.2528
458
27.2638
488
27.2748
473
27.2858
465
27.2968
435
27.3078
464
27.3188
468
27.3298
447
27.3409
456
27.3519
444
27.3629
456
27.3739
470
27.3849
469
27.3959
480
27.4069
468
27.4179
458
27.4289
462
27.44
432
27.451
466
27.462
444
27.473
450
27.484
471
27.495
470
27.506
506
27.517
457
27.5281
447
27.5391
498
27.5501
470
27.5611
447
27.5721
483
27.5831
464
27.5941
452
27.6051
503
27.6161
494
27.6272
449
27.6382
487
27.6492
475
27.6602
469
27.6712
477
27.6822
506
27.6932
483
27.7042
472
27.7153
511
27.7263
491
27.7373
491
27.7483
455
27.7593
488
27.7703
485
27.7813
485
27.7923
450
27.8034
498
27.8144
500
27.8254
480
27.8364
507
27.8474
488
27.8584
493
27.8694
491
27.8804
499
27.8914
499
27.9025
516
27.9135
510
27.9245
511
27.9355
491
27.9465
488
27.9575
494
27.9685
430
27.9795
474
27.9906
469
28.0016
456
28.0126
457
28.0236
462
28.0346
458
28.0456
507
28.0566
491
28.0676
468
28.0786
479
28.0897
470
28.1007
485
28.1117
490
28.1227
498
28.1337
443
28.1447
494
28.1557
460
28.1667
473
28.1778
500
28.1888
525
28.1998
511
28.2108
489
28.2218
494
28.2328
501
28.2438
469
28.2548
475
28.2658
495
28.2769
461
28.2879
470
28.2989
475
28.3099
480
28.3209
492
28.3319
477
28.3429
512
28.3539
481
28.365
469
28.376
477
28.387
457
28.398
503
28.409
512
28.42
502
28.431
498
28.442
491
28.453
494
28.4641
486
28.4751
525
28.4861
500
28.4971
514
28.5081
515
28.5191
518
28.5301
483
28.5411
513
28.5522
495
28.5632
492
28.5742
521
28.5852
501
28.5962
504
28.6072
488
28.6182
492
28.6292
505
28.6402
489
28.6513
525
28.6623
482
28.6733
512
28.6843
495
28.6953
509
28.7063
505
28.7173
509
28.7283
537
28.7394
475
28.7504
516
28.7614
532
28.7724
489
28.7834
516
28.7944
510
28.8054
502
28.8164
494
28.8274
481
28.8385
502
28.8495
509
28.8605
502
28.8715
547
28.8825
533
28.8935
518
28.9045
527
28.9155
557
28.9266
527
28.9376
534
28.9486
549
28.9596
585
28.9706
549
28.9816
572
28.9926
560
29.0036
562
29.0146
559
29.0257
546
29.0367
554
29.0477
556
29.0587
539
29.0697
530
29.0807
540
29.0917
569
29.1027
551
29.1138
549
29.1248
554
29.1358
553
29.1468
539
29.1578
548
29.1688
551
29.1798
597
29.1908
580
29.2018
566
29.2129
550
29.2239
563
29.2349
536
29.2459
532
29.2569
534
29.2679
533
29.2789
518
29.2899
514
29.301
493
29.312
472
29.323
466
29.334
483
29.345
501
29.356
482
29.367
499
29.378
491
29.389
498
29.4001
473
29.4111
469
29.4221
485
29.4331
491
29.4441
460
29.4551
453
29.4661
495
29.4771
513
29.4882
523
29.4992
509
29.504
566
29.504
565
29.504
587
29.504
643
29.504
645
29.504
672
29.504
696
29.504
673
29.504
689
29.504
666
29.504
684
29.504
645
29.504
665
29.504
614
29.504
565
29.504
657
29.504
652
29.504
689
29.504
757
29.504
797
29.504
792
29.504
784
29.504
804
29.504
794
29.504
799
29.504
815
29.504
793
29.504
742
29.504
716
29.504
698
29.504
664
29.504
640
29.504
639
29.504
592
29.504
594
29.504
536
29.504
503
29.504
456
29.504
453
29.504
420
29.504
420
29.504
394
29.504
369
29.504
348
29.504
301
29.504
292
29.504
256
29.504
242
29.504
226
29.504
190
29.504
152
29.504
146
29.504
129
29.504
C 1s/8
Not Specified
2017
12
11
13
25
16
0
9
Casa Info Follows
1
Calib M = 280.699 A = 284.5 BE ADD
0
0
0
   XPS     Spectrum    Lens Mode:Hybrid   Resolution:Pass energy 20    Iris(Aper):slot(Slot)
   Acqn. Time(s): 261        Sweeps: 4        Anode:Mono(Al (Mono))(150 W)   Step(meV): 100.0 
   Dwell Time(ms): 250        Charge Neutraliser :On   Acquired On :17/12/11 13:25:16
XPS
0
0
0
Mono(Al (Mono))
1486.69
150
1e+037
1e+037
6000
6000
1e+037
1e+037
FAT
20
1e+037
-4.803
0
1e+037
1e+037
1e+037
1e+037
C
1s
-1
Kinetic Energy
eV
1186.69
0.1
2
Intensity
d
Transmission
d
pulse counting
0.25
4
0
1e+037
1e+037
1e+037
0
522
137
30519
1.1574
1.16426
1667
1.16426
1673
1.16422
1641
1.16418
1628
1.16414
1597
1.1641
1622
1.16406
1630
1.16402
1517
1.16398
1572
1.16393
1626
1.16389
1662
1.16385
1544
1.16381
1558
1.16377
1575
1.16373
1483
1.16369
1507
1.16365
1514
1.16361
1468
1.16357
1498
1.16352
1481
1.16348
1421
1.16344
1413
1.1634
1403
1.16336
1470
1.16332
1435
1.16328
1382
1.16324
1334
1.1632
1416
1.16315
1377
1.16311
1315
1.16307
1339
1.16303
1313
1.16299
1260
1.16295
1332
1.16292
1307
1.1629
1320
1.16287
1258
1.16285
1282
1.16282
1247
1.1628
1291
1.16278
1273
1.16275
1300
1.16273
1240
1.1627
1211
1.16268
1190
1.16265
1206
1.16263
1206
1.16261
1250
1.16258
1193
1.16256
1182
1.16253
1264
1.16251
1224
1.16248
1267
1.16246
1162
1.16244
1182
1.16241
1212
1.16239
1192
1.16236
1174
1.16234
1204
1.16231
1126
1.16229
1124
1.16226
1147
1.16224
1151
1.16222
1167
1.16219
1160
1.16217
1150
1.16214
1199
1.16212
1132
1.16209
1172
1.16207
1150
1.16205
1157
1.16202
1138
1.162
1151
1.16197
1171
1.16195
1176
1.16192
1182
1.1619
1129
1.16188
1103
1.16185
1141
1.16183
1216
1.1618
1159
1.16178
1146
1.16175
1175
1.16173
1230
1.16171
1164
1.16168
1251
1.16166
1202
1.16163
1246
1.16161
1283
1.16158
1250
1.16156
1294
1.16153
1288
1.16151
1316
1.16149
1365
1.16146
1376
1.16144
1304
1.16141
1340
1.16139
1339
1.16136
1312
1.16134
1326
1.16132
1386
1.16129
1346
1.16127
1367
1.16124
1372
1.16122
1434
1.16119
1445
1.16117
1431
1.16115
1494
1.16112
1517
1.1611
1425
1.16107
1461
1.16105
1501
1.16102
1572
1.161
1568
1.16097
1607
1.16095
1581
1.16093
1669
1.1609
1714
1.16088
1755
1.16085
1773
1.16083
1770
1.1608
1805
1.16078
1794
1.16076
1810
1.16073
1879
1.16071
1905
1.16068
1935
1.16066
2014
1.16063
1992
1.16061
2011
1.16059
2026
1.16056
2102
1.16054
2085
1.16051
2142
1.16049
2152
1.16046
2203
1.16044
2262
1.16042
2310
1.16039
2307
1.16037
2292
1.16034
2335
1.16032
2307
1.16029
2387
1.16027
2379
1.16024
2425
1.16022
2453
1.1602
2457
1.16017
2482
1.16015
2528
1.16012
2509
1.1601
2540
1.16007
2585
1.16005
2611
1.16003
2557
1.16
2652
1.15998
2628
1.15995
2660
1.15993
2805
1.1599
2839
1.15988
2851
1.15986
2928
1.15983
2952
1.15981
3179
1.15978
3287
1.15976
3375
1.15973
3482
1.15971
3580
1.15969
3761
1.15966
3855
1.15964
4001
1.15961
4091
1.15959
4105
1.15956
4142
1.15954
4099
1.15951
4196
1.15949
4262
1.15947
4356
1.15944
4476
1.15942
4568
1.15939
4609
1.15937
4936
1.15934
5110
1.15932
5547
1.1593
6108
1.15927
6817
1.15925
7751
1.15922
8975
1.1592
10836
1.15917
13410
1.15915
16826
1.15913
21361
1.1591
26274
1.15908
30128
1.15905
30519
1.15903
26788
1.159
20714
1.15898
14224
1.15895
9337
1.15893
5835
1.15891
3733
1.15888
2488
1.15886
1764
1.15883
1231
1.15881
942
1.15878
723
1.15876
594
1.15874
501
1.15871
446
1.15869
377
1.15866
367
1.15864
330
1.15861
299
1.15859
305
1.15857
274
1.15854
294
1.15852
249
1.15849
243
1.15847
237
1.15844
226
1.15842
218
1.1584
237
1.15837
207
1.15835
201
1.15832
192
1.1583
179
1.15827
190
1.15825
180
1.15822
164
1.1582
183
1.15818
183
1.15815
164
1.15813
151
1.1581
175
1.15808
182
1.15805
150
1.15803
179
1.15801
158
1.15798
172
1.15796
163
1.15793
153
1.15791
164
1.15788
137
1.15786
140
1.15784
144
1.15781
150
1.15779
148
1.15776
151
1.15774
146
1.15771
137
1.15769
152
1.15767
156
1.15764
167
1.15762
139
1.15759
155
1.15757
159
1.15754
168
1.15752
141
1.15749
138
1.15747
153
1.15745
147
1.15742
155
1.1574
N 1s/9
Not Specified
2017
12
11
13
25
16
0
9
Casa Info Follows
1
Calib M = 280.699 A = 284.5 BE ADD
0
0
0
   XPS     Spectrum    Lens Mode:Hybrid   Resolution:Pass energy 20    Iris(Aper):slot(Slot)
   Acqn. Time(s): 241        Sweeps: 4        Anode:Mono(Al (Mono))(150 W)   Step(meV): 100.0 
   Dwell Time(ms): 298        Charge Neutraliser :On   Acquired On :17/12/11 13:25:16
XPS
0
0
0
Mono(Al (Mono))
1486.69
150
1e+037
1e+037
6000
6000
1e+037
1e+037
FAT
20
1e+037
-4.803
0
1e+037
1e+037
1e+037
1e+037
N
1s
-1
Kinetic Energy
eV
1076.69
0.1
2
Intensity
d
Transmission
d
pulse counting
0.2985
4
0
1e+037
1e+037
1e+037
0
404
2339
2961
1.20216
1.21679
2403
1.21679
2430
1.21671
2435
1.21664
2464
1.21657
2456
1.2165
2469
1.21642
2501
1.21635
2482
1.21628
2489
1.21621
2452
1.21613
2431
1.21606
2393
1.21599
2438
1.21591
2375
1.21584
2420
1.21577
2439
1.2157
2520
1.21562
2498
1.21555
2419
1.21548
2451
1.2154
2456
1.21533
2394
1.21526
2382
1.21519
2380
1.21511
2462
1.21504
2463
1.21497
2413
1.2149
2463
1.21482
2365
1.21475
2401
1.21468
2404
1.2146
2447
1.21453
2486
1.21446
2441
1.21439
2515
1.21431
2472
1.21424
2478
1.21417
2445
1.2141
2513
1.21402
2408
1.21395
2465
1.21388
2441
1.2138
2406
1.21373
2441
1.21366
2424
1.21359
2407
1.21351
2433
1.21344
2376
1.21337
2358
1.21329
2376
1.21322
2402
1.21315
2428
1.21308
2451
1.213
2482
1.21293
2405
1.21286
2417
1.21279
2453
1.21271
2449
1.21264
2443
1.21257
2480
1.21249
2448
1.21242
2478
1.21235
2395
1.21228
2415
1.2122
2397
1.21213
2499
1.21206
2453
1.21198
2467
1.21191
2505
1.21184
2497
1.21177
2501
1.21169
2408
1.21162
2505
1.21155
2442
1.21148
2458
1.2114
2411
1.21133
2474
1.21126
2486
1.21118
2483
1.21111
2482
1.21104
2479
1.21097
2455
1.21089
2477
1.21082
2478
1.21075
2566
1.21068
2562
1.2106
2586
1.21053
2530
1.21046
2584
1.21038
2622
1.21031
2629
1.21024
2757
1.21017
2710
1.21009
2724
1.21002
2811
1.20995
2792
1.20987
2668
1.2098
2680
1.20973
2635
1.20966
2596
1.20958
2657
1.20951
2617
1.20944
2675
1.20937
2651
1.20929
2614
1.20922
2613
1.20915
2611
1.20907
2573
1.209
2531
1.20893
2525
1.20886
2583
1.20878
2605
1.20871
2603
1.20864
2554
1.20856
2510
1.20849
2561
1.20842
2586
1.20835
2610
1.20827
2569
1.2082
2556
1.20813
2578
1.20806
2633
1.20798
2584
1.20791
2642
1.20784
2652
1.20776
2609
1.20769
2646
1.20762
2717
1.20755
2653
1.20747
2733
1.2074
2745
1.20733
2774
1.20726
2780
1.20718
2800
1.20711
2792
1.20704
2884
1.20696
2914
1.20689
2892
1.20682
2937
1.20675
2961
1.20667
2922
1.2066
2938
1.20653
2856
1.20645
2859
1.20638
2846
1.20631
2826
1.20624
2751
1.20616
2726
1.20609
2661
1.20602
2506
1.20595
2608
1.20587
2593
1.2058
2490
1.20573
2509
1.20565
2483
1.20558
2501
1.20551
2493
1.20544
2488
1.20536
2478
1.20529
2366
1.20522
2387
1.20514
2474
1.20507
2424
1.205
2422
1.20493
2339
1.20485
2452
1.20478
2457
1.20471
2453
1.20464
2433
1.20456
2447
1.20449
2411
1.20442
2419
1.20434
2441
1.20427
2452
1.2042
2435
1.20413
2457
1.20405
2456
1.20398
2437
1.20391
2488
1.20384
2471
1.20376
2488
1.20369
2483
1.20362
2457
1.20354
2465
1.20347
2381
1.2034
2449
1.20333
2357
1.20325
2393
1.20318
2421
1.20311
2455
1.20303
2435
1.20296
2393
1.20289
2396
1.20282
2453
1.20274
2408
1.20267
2447
1.2026
2439
1.20253
2490
1.20245
2481
1.20238
2451
1.20231
2430
1.20223
2462
1.20216
Survey/12
Not Specified
2017
12
11
13
35
42
0
16
Casa Info Follows
1
Calib M = 284.103 A = 284.5 BE ADD
1
annot regions Display 0.05 0.05 RGB(0,0,0) Font(12,18,0,0,Times New Roman)

5
CASA region (*C 1s*) (*Shirley*) 1188.6016 1207.043 0.278 1 0 0 299 542 275 9.3 (*C 1s*) 12.011
CASA region (*F 1s*) (*Shirley*) 798.043 803.88178 1 1 0 0 299 542 275 9.3 (*F 1s*) 18.9984
CASA region (*O 1s*) (*Shirley*) 945.543 958.71196 0.78 1 0 0 299 542 275 9.3 (*O 1s*) 15.9994
CASA region (*S 2p*) (*Shirley*) 1314.043 1322.543 0.668 1 0 0 299 542 275 9.3 (*S 2p*) 32.0648
CASA region (*N 1s*) (*Shirley*) 1082.4711 1088.8203 0.477 1 0 0 299 542 275 9.3 (*N 1s*) 14.0067
0
   XPS     Spectrum    Lens Mode:Hybrid   Resolution:Pass energy 160   Iris(Aper):slot(Slot)
   Acqn. Time(s): 540        Sweeps: 2        Anode:Mono(Al (Mono))(150 W)   Step(meV): 500.0 
   Dwell Time(ms): 100        Charge Neutraliser :On   Acquired On :17/12/11 13:35:42
XPS
10
1
0
Mono(Al (Mono))
1486.69
150
1e+037
1e+037
6000
6000
1e+037
1e+037
FAT
160
1e+037
-4.803
0
1e+037
1e+037
1e+037
1e+037
Wide
None
-1
Kinetic Energy
eV
136.69
0.5
2
Intensity
d
Transmission
d
pulse counting
0.1
2
0
1e+037
1e+037
1e+037
0
5402
22
53329
25.7891
29.504
9700
27.0049
9883
27.0049
9687
27.0049
9584
27.0049
9592
27.0049
9803
27.0049
9886
27.0049
9604
27.0049
9676
27.0049
9761
27.0049
9701
27.0049
9683
27.0049
9667
27.0049
9793
27.0049
9678
27.0049
9696
27.0049
9566
27.0049
9786
27.0049
9676
27.0049
9654
27.0049
9703
27.0049
9759
27.0049
9780
27.0049
9733
27.0049
9851
27.0049
9773
27.0049
9657
27.0049
9742
27.0049
9795
27.0049
9610
27.0049
9799
27.0049
9897
27.0049
9588
27.0049
9666
27.0049
9682
27.0049
9697
27.0049
9684
27.0049
9455
27.0049
9499
27.0049
9691
27.0049
9600
27.0049
9559
27.0049
9716
27.0049
9735
27.0049
9649
27.0049
9641
27.0049
9781
27.0049
9604
27.0049
9605
27.0049
9687
27.0049
9763
27.0049
9569
27.0049
9656
27.0049
9840
27.0049
9627
27.0049
9645
27.0049
9699
27.0049
9645
27.0049
9609
27.0049
9667
27.0049
9614
27.0049
9671
27.0049
9533
27.0049
9510
27.0049
9499
27.0049
9793
27.0049
9701
27.0049
9641
27.0049
9564
27.0049
9623
27.0049
9580
27.0049
9564
27.0049
9621
27.0049
9644
27.0049
9585
27.0049
9663
27.0049
9565
27.0049
9499
27.0049
9519
27.0049
9633
27.0049
9540
27.0049
9629
27.0049
9609
27.0049
9557
27.0049
9769
27.0049
9866
27.0049
9879
27.0049
9888
27.0049
10030
27.0049
10151
27.0049
10289
27.0049
10363
27.0049
10487
27.0049
10501
27.0049
10323
27.0049
10024
27.0049
10006
27.0049
10050
27.0049
9883
27.0049
9776
27.0049
9843
27.0049
9935
27.0049
9892
27.0049
9991
27.0049
9719
27.0049
9788
27.0049
9906
27.0049
9864
27.0049
9862
27.0049
9958
27.0049
10026
27.0049
9849
27.0049
9895
27.0049
9990
27.0049
10169
27.0049
10092
27.0049
9909
27.0049
10083
27.0049
9974
27.0049
9998
27.0049
10141
27.0049
10183
27.0049
9895
27.0049
9997
27.0049
9961
27.0049
10115
27.0049
10181
27.0049
10182
27.0049
10087
27.0049
10158
27.0049
10023
27.0049
10052
27.0049
10194
27.0049
10280
27.0049
10193
27.0049
10163
27.0049
10216
27.0049
10157
27.0049
10313
27.0049
10199
27.0049
10285
27.0049
10272
27.0049
10182
27.0049
10293
27.0049
10351
27.0049
10359
27.0049
10188
27.0049
10302
27.005
10372
27.005
10336
27.0051
10283
27.0051
10301
27.0052
10307
27.0052
10490
27.0053
10408
27.0054
10485
27.0054
10460
27.0055
10443
27.0055
10519
27.0056
10478
27.0056
10406
27.0057
10454
27.0057
10507
27.0058
10726
27.0059
10559
27.0059
10599
27.006
10674
27.006
10597
27.0061
10553
27.0061
10706
27.0062
10624
27.0063
10528
27.0063
10638
27.0064
10697
27.0064
10694
27.0065
10701
27.0065
10591
27.0066
10826
27.0067
10980
27.0067
10821
27.0068
10817
27.0068
10713
27.0069
10808
27.0069
10811
27.007
10851
27.007
10872
27.0071
10809
27.0072
10754
27.0072
11101
27.0073
10838
27.0073
10960
27.0074
10994
27.0074
10927
27.0075
11133
27.0076
11084
27.0076
10987
27.0077
11081
27.0077
11265
27.0078
11141
27.0078
11172
27.0079
11169
27.008
11111
27.008
11422
27.0081
11524
27.0081
11310
27.0082
11529
27.0082
11609
27.0083
11591
27.0083
11671
27.0084
11551
27.0085
11624
27.0085
11632
27.0086
11580
27.0086
11580
27.0087
11616
27.0087
11691
27.0088
11598
27.0089
11570
27.0089
11708
27.009
11652
27.009
11608
27.0091
11623
27.0091
11486
27.0092
11539
27.0093
11458
27.0093
11405
27.0094
11395
27.0094
11539
27.0095
11501
27.0095
11591
27.0096
11773
27.0096
11757
27.0097
11705
27.0098
11917
27.0098
12173
27.0099
12295
27.0099
12300
27.01
12223
27.01
12463
27.0101
12580
27.0102
12540
27.0102
12689
27.0103
12649
27.0103
12746
27.0104
12579
27.0104
12618
27.0105
12746
27.0105
12804
27.0115
12888
27.0131
12786
27.0148
12864
27.0164
13049
27.018
12881
27.0197
12785
27.0213
12590
27.0229
12860
27.0246
12761
27.0262
12678
27.0278
12494
27.0295
12339
27.0311
12473
27.0327
12358
27.0344
12434
27.036
12344
27.0377
12229
27.0393
12015
27.0409
11830
27.0426
11657
27.0442
11514
27.0458
11266
27.0475
11015
27.0491
10902
27.0507
10559
27.0524
10409
27.054
10130
27.0556
9888
27.0573
9732
27.0589
9589
27.0605
9381
27.0622
8986
27.0638
8829
27.0655
8806
27.0671
8530
27.0687
8289
27.0704
8147
27.072
8046
27.0736
7818
27.0753
7651
27.0769
7637
27.0785
7437
27.0802
7413
27.0818
7323
27.0834
7166
27.0851
7080
27.0867
6993
27.0883
6905
27.09
7057
27.0916
6924
27.0933
6899
27.0949
6849
27.0965
6958
27.0982
6894
27.0998
6810
27.1014
6996
27.1031
6936
27.1047
6889
27.1063
6982
27.108
6922
27.1096
6911
27.1112
6887
27.1129
6877
27.1145
6997
27.1161
6952
27.1178
7085
27.1194
6978
27.1211
6846
27.1227
6977
27.1243
7101
27.126
7070
27.1276
6921
27.1292
6921
27.1309
6896
27.1325
6947
27.1341
6925
27.1358
7007
27.1374
6982
27.139
6884
27.1407
6937
27.1423
7007
27.1439
6892
27.1456
6828
27.1472
6884
27.1489
6920
27.1505
6961
27.1521
6935
27.1538
7097
27.1554
7179
27.157
7014
27.1587
6982
27.1603
7038
27.1619
6974
27.1636
6997
27.1652
7062
27.1668
7108
27.1685
7035
27.1701
7046
27.1717
7129
27.1734
7147
27.1731
7081
27.1714
7014
27.1697
7021
27.168
7272
27.1663
7114
27.1646
7115
27.1629
7111
27.1612
6963
27.1595
6935
27.1578
7019
27.1561
6998
27.1544
7085
27.1527
7023
27.151
7106
27.1493
7083
27.1476
7155
27.1459
7167
27.1442
7158
27.1425
7225
27.1407
7158
27.139
7195
27.1373
7186
27.1356
7110
27.1339
7172
27.1322
7214
27.1305
7141
27.1288
7193
27.1271
7215
27.1254
7294
27.1237
7266
27.122
7166
27.1203
7359
27.1186
7265
27.1169
7170
27.1152
7219
27.1135
7358
27.1118
7286
27.11
7142
27.1083
7207
27.1066
7294
27.1049
7325
27.1032
7218
27.1015
7269
27.0998
7295
27.0981
7273
27.0964
7294
27.0947
7203
27.093
7329
27.0913
7412
27.0896
7284
27.0879
7302
27.0862
7161
27.0845
7164
27.0828
7168
27.0811
7288
27.0793
7433
27.0776
7349
27.0759
7317
27.0742
7395
27.0725
7345
27.0708
7319
27.0691
7377
27.0674
7363
27.0657
7389
27.064
7354
27.0623
7258
27.0606
7445
27.0589
7411
27.0572
7361
27.0555
7350
27.0538
7370
27.0521
7324
27.0504
7445
27.0487
7324
27.0469
7433
27.0452
7407
27.0435
7422
27.0418
7400
27.0401
7496
27.0384
7429
27.0367
7464
27.035
7348
27.0333
7574
27.0316
7440
27.0299
7433
27.0282
7402
27.0265
7676
27.0248
7528
27.0231
7518
27.0214
7564
27.0197
7539
27.018
7607
27.0162
7562
27.0145
7539
27.0128
7450
27.0111
7624
27.0094
7533
27.0077
7625
27.006
7599
27.0043
7490
27.0023
7574
26.9999
7463
26.9976
7578
26.9953
7551
26.993
7527
26.9907
7603
26.9884
7468
26.9861
7621
26.9837
7682
26.9814
7667
26.9791
7607
26.9768
7495
26.9745
7662
26.9722
7641
26.9699
7708
26.9675
7551
26.9652
7673
26.9629
7684
26.9606
7671
26.9583
7598
26.956
7617
26.9536
7695
26.9513
7520
26.949
7622
26.9467
7679
26.9444
7709
26.9421
7870
26.9398
7787
26.9374
7867
26.9351
7687
26.9328
7797
26.9305
7671
26.9282
7792
26.9259
7744
26.9235
7665
26.9212
7691
26.9189
7682
26.9166
7881
26.9143
7652
26.912
7873
26.9097
7836
26.9073
7800
26.905
7624
26.9027
7780
26.9004
7692
26.8981
7846
26.8958
7907
26.8935
7846
26.8911
7926
26.8888
7758
26.8865
7772
26.8842
7893
26.8819
7776
26.8796
7688
26.8772
7882
26.8749
7819
26.8726
7914
26.8703
7763
26.868
7717
26.8657
7847
26.8634
7884
26.861
7770
26.8587
7960
26.8564
7862
26.8541
7864
26.8518
7962
26.8495
7899
26.8471
7921
26.8448
7883
26.8425
7868
26.8402
7895
26.8379
7835
26.8356
7771
26.8333
7931
26.8309
7990
26.8286
7933
26.8263
7902
26.824
7853
26.8217
7892
26.8194
7959
26.8171
7902
26.8147
7905
26.8124
7966
26.8101
7967
26.8078
7950
26.8055
7988
26.8032
7993
26.8008
7795
26.7985
7948
26.7962
7974
26.7939
8072
26.7916
8018
26.7893
8016
26.787
8051
26.7846
7982
26.7823
8151
26.78
8040
26.7777
8013
26.7754
8097
26.7731
8125
26.7707
8175
26.7682
7940
26.7657
8021
26.7633
7971
26.7608
8035
26.7584
8134
26.7559
8071
26.7534
8201
26.751
8329
26.7485
8351
26.7461
8190
26.7436
8186
26.7411
8072
26.7387
8136
26.7362
8218
26.7337
8097
26.7313
8055
26.7288
8206
26.7264
8123
26.7239
8181
26.7214
8238
26.719
8197
26.7165
8142
26.7141
8323
26.7116
8170
26.7091
8242
26.7067
8207
26.7042
8361
26.7018
8292
26.6993
8336
26.6968
8308
26.6944
8231
26.6919
8186
26.6894
8234
26.687
8385
26.6845
8350
26.6821
8265
26.6796
8268
26.6771
8284
26.6747
8258
26.6722
8258
26.6698
8266
26.6673
8412
26.6648
8389
26.6624
8394
26.6599
8254
26.6574
8300
26.655
8247
26.6525
8381
26.6501
8352
26.6476
8328
26.6451
8341
26.6427
8440
26.6402
8521
26.6378
8496
26.6353
8354
26.6328
8394
26.6304
8497
26.6279
8571
26.6255
8579
26.623
8640
26.6205
8415
26.6181
8737
26.6156
8478
26.6131
8529
26.6107
8654
26.6082
8448
26.6058
8580
26.6033
8534
26.6008
8515
26.5984
8521
26.5959
8736
26.5935
8597
26.591
8595
26.5885
8553
26.5861
8753
26.5836
8600
26.5812
8553
26.5787
8709
26.5762
8554
26.5738
8602
26.5713
8599
26.5688
8615
26.5664
8624
26.5639
8627
26.5615
8650
26.559
8612
26.5565
8690
26.5541
8693
26.5516
8695
26.5492
8723
26.5467
8726
26.5442
8721
26.5418
8710
26.5393
8715
26.5368
8862
26.5344
8879
26.5319
8779
26.5295
8820
26.527
8833
26.5256
8734
26.5249
8768
26.5243
8841
26.5236
8885
26.523
8898
26.5223
9025
26.5217
8910
26.521
8900
26.5204
9052
26.5198
8900
26.5191
9115
26.5185
8914
26.5178
9013
26.5172
9032
26.5165
8834
26.5159
8910
26.5153
9223
26.5146
9086
26.514
9078
26.5133
9134
26.5127
9032
26.512
9025
26.5114
8985
26.5107
9104
26.5101
9078
26.5095
8989
26.5088
9107
26.5082
9062
26.5075
9192
26.5069
9084
26.5062
9037
26.5056
9127
26.5049
9029
26.5043
8943
26.5037
9145
26.503
9061
26.5024
9197
26.5017
9162
26.5011
9279
26.5004
9358
26.4998
9258
26.4992
9233
26.4985
9315
26.4979
9536
26.4972
9365
26.4966
9644
26.4959
9719
26.4953
9664
26.4946
9679
26.494
9669
26.4934
9690
26.4927
9788
26.4921
9761
26.4914
9644
26.4908
9743
26.4901
9811
26.4895
9612
26.4888
9571
26.4882
9572
26.4876
9611
26.4869
9482
26.4863
9524
26.4856
9505
26.485
9435
26.4843
9533
26.4837
9348
26.483
9239
26.4824
9202
26.4818
9211
26.4811
9101
26.4805
9065
26.4798
8960
26.4792
8811
26.4785
9002
26.4779
8771
26.4773
8916
26.4766
8868
26.476
8828
26.4753
8883
26.4747
8920
26.474
9027
26.4734
8929
26.4727
9055
26.4721
9226
26.4715
9245
26.4708
9120
26.4702
9293
26.4695
9450
26.4689
9475
26.4682
9589
26.4676
9668
26.4669
9829
26.4663
10122
26.4657
10090
26.465
10265
26.4644
10388
26.4637
10503
26.4631
10539
26.4624
10624
26.4618
10584
26.461
10566
26.4601
10674
26.4592
10580
26.4583
10473
26.4574
10353
26.4565
10296
26.4556
10168
26.4547
10064
26.4539
10072
26.453
9845
26.4521
9495
26.4512
9448
26.4503
9280
26.4494
9137
26.4485
8927
26.4476
8707
26.4467
8593
26.4458
8340
26.4449
8050
26.444
7830
26.4431
7828
26.4422
7745
26.4413
7550
26.4404
7417
26.4395
7298
26.4387
7328
26.4378
7193
26.4369
7293
26.436
7234
26.4351
7230
26.4342
7049
26.4333
7108
26.4324
7073
26.4315
7007
26.4306
7048
26.4297
7038
26.4288
6991
26.4279
7117
26.427
6993
26.4261
6915
26.4252
7014
26.4243
7020
26.4234
6976
26.4226
7069
26.4217
6905
26.4208
6994
26.4199
7136
26.419
7132
26.4181
7105
26.4172
7063
26.4163
7046
26.4154
7067
26.4145
7011
26.4136
7021
26.4127
6932
26.4118
6974
26.4109
7135
26.41
7147
26.4091
7054
26.4082
6905
26.4074
6975
26.4065
7029
26.4056
7064
26.4047
7131
26.4038
7086
26.4029
7043
26.402
7000
26.4011
7046
26.4002
7168
26.3993
7060
26.3984
7031
26.3975
7243
26.3966
7168
26.3957
7201
26.3948
7142
26.3939
7061
26.393
6981
26.3921
7097
26.3913
7144
26.3904
7121
26.3895
7082
26.3886
7055
26.3877
7149
26.3868
7221
26.3859
7175
26.385
7168
26.3841
7241
26.3832
7169
26.3823
7206
26.3814
7198
26.3805
7203
26.3796
7159
26.3787
7102
26.3778
7147
26.3769
7094
26.376
7296
26.3752
7165
26.3743
7192
26.3734
7178
26.3725
7275
26.3723
7230
26.3727
7206
26.3731
7198
26.3735
7200
26.3738
7251
26.3742
7247
26.3746
7207
26.375
7175
26.3754
7180
26.3758
7272
26.3762
7213
26.3766
7380
26.3769
7329
26.3773
7185
26.3777
7057
26.3781
7093
26.3785
7204
26.3789
7257
26.3793
7321
26.3797
7361
26.38
7273
26.3804
7361
26.3808
7353
26.3812
7367
26.3816
7388
26.382
7253
26.3824
7251
26.3828
7283
26.3831
7289
26.3835
7294
26.3839
7512
26.3843
7487
26.3847
7308
26.3851
7283
26.3855
7169
26.3859
7342
26.3862
7330
26.3866
7365
26.387
7333
26.3874
7254
26.3878
7271
26.3882
7401
26.3886
7444
26.389
7355
26.3893
7372
26.3897
7352
26.3901
7366
26.3905
7315
26.3909
7516
26.3913
7548
26.3917
7430
26.3921
7385
26.3924
7421
26.3928
7376
26.3932
7377
26.3936
7328
26.394
7422
26.3944
7498
26.3948
7352
26.3952
7453
26.3955
7328
26.3959
7327
26.3963
7477
26.3967
7561
26.3971
7468
26.3975
7484
26.3979
7621
26.3983
7564
26.3986
7533
26.399
7408
26.3994
7504
26.3998
7450
26.4002
7401
26.4006
7372
26.401
7573
26.4014
7538
26.4017
7381
26.4021
7546
26.4025
7580
26.4029
7513
26.4033
7579
26.4037
7768
26.4041
7441
26.4045
7466
26.4048
7559
26.4052
7522
26.4056
7606
26.406
7550
26.4064
7604
26.4068
7560
26.4072
7509
26.4076
7541
26.4079
7536
26.4083
7586
26.4087
7671
26.4091
7580
26.4095
7580
26.4099
7560
26.4103
7649
26.4107
7635
26.4113
7616
26.4123
7532
26.4132
7535
26.4141
7583
26.4151
7623
26.416
7553
26.4169
7454
26.4179
7564
26.4188
7713
26.4197
7461
26.4207
7602
26.4216
7629
26.4225
7633
26.4234
7638
26.4244
7597
26.4253
7612
26.4262
7638
26.4272
7625
26.4281
7607
26.429
7638
26.43
7632
26.4309
7753
26.4318
7621
26.4328
7611
26.4337
7748
26.4346
7706
26.4356
7688
26.4365
7688
26.4374
7657
26.4383
7647
26.4393
7710
26.4402
7751
26.4411
7681
26.4421
7670
26.443
7689
26.4439
7676
26.4449
7709
26.4458
7827
26.4467
7791
26.4477
7822
26.4486
7699
26.4495
7729
26.4505
7818
26.4514
7847
26.4523
7746
26.4532
7747
26.4542
7809
26.4551
7875
26.456
7912
26.457
7710
26.4579
7846
26.4588
7822
26.4598
7725
26.4607
7754
26.4616
7784
26.4626
7697
26.4635
7784
26.4644
7861
26.4654
7818
26.4663
7815
26.4672
7868
26.4681
7816
26.4691
7885
26.47
7963
26.4709
7858
26.4719
7823
26.4728
7709
26.4737
7835
26.4747
7943
26.4756
7848
26.4765
7802
26.4775
7882
26.4784
7742
26.4793
7661
26.4803
7779
26.4812
7823
26.4821
7838
26.483
7896
26.484
7896
26.4849
7766
26.4858
7879
26.4868
7952
26.4877
7811
26.4886
7993
26.4896
7864
26.4905
8033
26.4914
8002
26.4924
8142
26.4933
7919
26.4942
8046
26.4952
8168
26.4961
8044
26.497
8027
26.4979
8101
26.4989
8079
26.4998
8123
26.5007
8018
26.5017
8129
26.5026
8012
26.5035
7979
26.5032
8146
26.5018
8029
26.5005
8066
26.4991
7957
26.4977
7990
26.4964
7975
26.495
8002
26.4937
7809
26.4923
7789
26.4909
7770
26.4896
7993
26.4882
8000
26.4868
7917
26.4855
7890
26.4841
7834
26.4828
7896
26.4814
7964
26.48
8039
26.4787
7887
26.4773
7958
26.476
7970
26.4746
7988
26.4732
8017
26.4719
7873
26.4705
7874
26.4691
7822
26.4678
7868
26.4664
7978
26.4651
7969
26.4637
8063
26.4623
7923
26.461
8007
26.4596
8042
26.4583
7933
26.4569
7904
26.4555
7980
26.4542
8145
26.4528
8004
26.4515
7900
26.4501
7996
26.4487
8104
26.4474
8184
26.446
8020
26.4446
8009
26.4433
8015
26.4419
8100
26.4406
8118
26.4392
8016
26.4378
8010
26.4365
8023
26.4351
8191
26.4338
8073
26.4324
8258
26.431
8172
26.4297
8007
26.4283
8141
26.427
8098
26.4256
8021
26.4242
8059
26.4229
8127
26.4215
8130
26.4201
8160
26.4188
8069
26.4174
8151
26.4161
8295
26.4147
8195
26.4133
8226
26.412
8121
26.4106
8050
26.4093
8045
26.4079
8126
26.4065
8259
26.4052
8181
26.4038
8195
26.4024
8180
26.4011
8169
26.3997
8022
26.3984
8229
26.397
8196
26.3956
8365
26.3942
8357
26.3928
8352
26.3914
8259
26.3899
8241
26.3885
8256
26.387
8335
26.3856
8256
26.3841
8192
26.3827
8328
26.3813
8404
26.3798
8300
26.3784
8256
26.3769
8309
26.3755
8134
26.3741
8090
26.3726
8141
26.3712
8220
26.3697
8279
26.3683
8275
26.3669
8472
26.3654
8284
26.364
8342
26.3625
8417
26.3611
8402
26.3597
8385
26.3582
8417
26.3568
8376
26.3553
8297
26.3539
8324
26.3524
8333
26.351
8323
26.3496
8519
26.3481
8376
26.3467
8318
26.3452
8388
26.3438
8516
26.3424
8387
26.3409
8451
26.3395
8252
26.338
8392
26.3366
8461
26.3352
8460
26.3337
8504
26.3323
8374
26.3308
8277
26.3294
8382
26.328
8418
26.3265
8469
26.3251
8461
26.3236
8365
26.3222
8494
26.3208
8397
26.3193
8478
26.3179
8573
26.3164
8448
26.315
8471
26.3135
8361
26.3121
8338
26.3107
8533
26.3092
8260
26.3078
8315
26.3063
8408
26.3049
8417
26.3035
8503
26.302
8562
26.3006
8480
26.2991
8423
26.2977
8447
26.2963
8474
26.2948
8632
26.2934
8581
26.2919
8610
26.2905
8685
26.2891
8683
26.2876
8576
26.2862
8626
26.2847
8474
26.2833
8481
26.2818
8482
26.2804
8531
26.279
8559
26.2775
8478
26.2761
8574
26.2746
8513
26.2732
8536
26.2718
8478
26.2703
8677
26.2689
8769
26.2674
8707
26.266
8534
26.2646
8650
26.2631
8775
26.2617
8592
26.2602
8631
26.2588
8585
26.2574
8698
26.2559
8765
26.2545
8581
26.253
8655
26.2516
8642
26.2501
8703
26.2487
8813
26.2473
8825
26.2458
8713
26.2444
8796
26.2429
8800
26.2415
8583
26.2401
8697
26.2386
8582
26.2372
8636
26.2357
8799
26.2343
8777
26.2329
8806
26.2314
8804
26.23
8572
26.2285
8746
26.2271
8867
26.2257
8734
26.2242
8761
26.2228
8776
26.2231
8859
26.2249
8727
26.2266
8783
26.2283
8692
26.2301
8733
26.2318
8695
26.2336
8720
26.2353
8720
26.237
8704
26.2388
8733
26.2405
8658
26.2423
8803
26.244
8858
26.2458
8868
26.2475
8872
26.2492
8797
26.251
8777
26.2527
8771
26.2545
8794
26.2562
8804
26.2579
8790
26.2597
8784
26.2614
8835
26.2632
8870
26.2649
8853
26.2667
8737
26.2684
8853
26.2701
8955
26.2719
8898
26.2736
8935
26.2754
9063
26.2771
8932
26.2788
9019
26.2806
8848
26.2823
8954
26.2841
8901
26.2858
8936
26.2876
8854
26.2893
8952
26.291
8856
26.2928
8918
26.2945
9019
26.2963
9043
26.298
9008
26.2997
8933
26.3015
8846
26.3032
8881
26.305
8863
26.3067
8851
26.3085
8961
26.3102
9014
26.3119
9016
26.3137
9051
26.3154
8932
26.3172
8967
26.3189
9007
26.3206
8950
26.3224
8886
26.3241
8985
26.3259
8925
26.3276
8926
26.3294
9000
26.3311
8984
26.3328
8979
26.3346
8923
26.3363
8895
26.3381
8916
26.3398
9077
26.3415
8943
26.3433
9003
26.345
8955
26.3468
8964
26.3485
9141
26.3503
9066
26.352
8995
26.3537
9147
26.3555
9118
26.3572
9206
26.359
9162
26.3607
9333
26.3624
9605
26.3642
9824
26.3659
9744
26.3677
9566
26.3694
9589
26.3712
9492
26.3729
9186
26.3746
9039
26.3764
9025
26.3781
9001
26.3799
8932
26.3816
9167
26.3833
9212
26.3851
9041
26.3868
9178
26.3886
9013
26.3903
9175
26.3921
9154
26.3938
9010
26.3955
9086
26.3957
9281
26.3947
9172
26.3937
9184
26.3926
9146
26.3916
9075
26.3906
9109
26.3896
9101
26.3885
9054
26.3875
9203
26.3865
9167
26.3854
9240
26.3844
9217
26.3834
9144
26.3824
9116
26.3813
9182
26.3803
9226
26.3793
9133
26.3782
9310
26.3772
9345
26.3762
9190
26.3752
9190
26.3741
9264
26.3731
9215
26.3721
9232
26.3711
9233
26.37
9167
26.369
9260
26.368
9223
26.3669
9278
26.3659
9190
26.3649
9168
26.3639
9353
26.3628
9456
26.3618
9268
26.3608
9415
26.3597
9323
26.3587
9274
26.3577
9233
26.3567
9184
26.3556
9311
26.3546
9242
26.3536
9324
26.3525
9400
26.3515
9411
26.3505
9434
26.3495
9356
26.3484
9282
26.3474
9431
26.3464
9335
26.3454
9362
26.3443
9185
26.3433
9394
26.3423
9302
26.3412
9533
26.3402
9433
26.3392
9323
26.3382
9454
26.3371
9527
26.3361
9598
26.3351
9435
26.334
9490
26.333
9491
26.332
9280
26.331
9452
26.3299
9532
26.3289
9685
26.3279
9488
26.3268
9449
26.3258
9502
26.3248
9504
26.3238
9459
26.3227
9437
26.3217
9269
26.3207
9551
26.3196
9399
26.3186
9342
26.3176
9476
26.3166
9499
26.3155
9623
26.3145
9679
26.3135
9704
26.3125
9527
26.3114
9541
26.3104
9449
26.3094
9319
26.3083
9613
26.3073
9471
26.3063
9634
26.3053
9742
26.3042
9520
26.3032
9588
26.3022
9544
26.3011
9593
26.3001
9610
26.2991
9618
26.2981
9699
26.297
9701
26.296
9678
26.295
9655
26.2939
9747
26.2929
9576
26.2919
9599
26.2909
9557
26.2898
9553
26.2888
9719
26.2878
9570
26.2868
9749
26.2857
9648
26.2847
9639
26.2837
9653
26.2826
9596
26.2816
9815
26.2806
9796
26.2796
9694
26.2785
9763
26.2775
9761
26.2765
9756
26.2754
9589
26.2744
9706
26.2734
9758
26.2731
9798
26.2735
9646
26.2738
9712
26.2741
9812
26.2745
9909
26.2748
9774
26.2751
9855
26.2755
9667
26.2758
9765
26.2761
9860
26.2765
9800
26.2768
9793
26.2771
9886
26.2775
9735
26.2778
9671
26.2782
9949
26.2785
9885
26.2788
9955
26.2792
9825
26.2795
9768
26.2798
9892
26.2802
9827
26.2805
9931
26.2808
9764
26.2812
9744
26.2815
9902
26.2818
9979
26.2822
9849
26.2825
9617
26.2828
9737
26.2832
9809
26.2835
9828
26.2839
9917
26.2842
9995
26.2845
9998
26.2849
9808
26.2852
9855
26.2855
9926
26.2859
9966
26.2862
10013
26.2865
9982
26.2869
9992
26.2872
9950
26.2875
10026
26.2879
10128
26.2882
9965
26.2885
9915
26.2889
10044
26.2892
9939
26.2896
10227
26.2899
10176
26.2902
10202
26.2906
10091
26.2909
10131
26.2912
10001
26.2916
9996
26.2919
10051
26.2922
10282
26.2926
10167
26.2929
10058
26.2932
10218
26.2936
10210
26.2939
10131
26.2942
10329
26.2946
10265
26.2949
10034
26.2953
10090
26.2956
10156
26.2959
10151
26.2963
10213
26.2966
10307
26.2969
10237
26.2973
10036
26.2976
10126
26.2979
9955
26.2983
10060
26.2986
10128
26.2989
10059
26.2993
10263
26.2996
10254
26.3006
10249
26.3021
10206
26.3035
10104
26.305
10060
26.3065
10141
26.3079
10241
26.3094
10101
26.3109
10174
26.3124
10148
26.3138
10064
26.3153
10179
26.3168
10243
26.3183
10198
26.3197
10244
26.3212
10094
26.3227
10034
26.3241
10071
26.3256
10150
26.3271
10107
26.3286
10319
26.33
10198
26.3315
10248
26.333
10385
26.3345
10284
26.3359
10354
26.3374
10366
26.3389
10380
26.3403
10366
26.3418
10610
26.3433
10667
26.3448
10638
26.3462
10676
26.3477
10676
26.3492
10804
26.3506
10751
26.3521
10568
26.3536
10766
26.3551
10714
26.3565
10688
26.358
10738
26.3595
10719
26.361
10655
26.3624
10524
26.3639
10426
26.3654
10554
26.3668
10442
26.3683
10490
26.3698
10369
26.3713
10175
26.3727
10118
26.3742
10126
26.3757
9967
26.3772
9874
26.3786
9649
26.3801
9596
26.3816
9660
26.383
9609
26.3845
9552
26.386
9507
26.3875
9352
26.3889
9232
26.3904
9307
26.3919
9262
26.3933
9014
26.3948
8963
26.3963
8947
26.3978
8931
26.3992
8832
26.4007
8915
26.4022
8912
26.4037
8920
26.4051
8835
26.4066
8943
26.4081
8855
26.4095
8937
26.411
9001
26.4125
9162
26.414
9335
26.4154
9346
26.4169
9423
26.4184
9730
26.4199
10213
26.4213
11197
26.4228
12749
26.4243
15326
26.4257
18779
26.4272
22370
26.4287
25135
26.4302
25821
26.4316
23880
26.4331
20265
26.4346
16346
26.436
12688
26.4375
10300
26.439
8779
26.4405
8292
26.4419
7792
26.4434
7732
26.4449
7741
26.4464
7781
26.4478
7744
26.4493
7688
26.4508
7623
26.4522
7590
26.4537
7616
26.4552
7656
26.4567
7588
26.4581
7535
26.4596
7610
26.4611
7537
26.4626
7583
26.464
7472
26.4655
7539
26.467
7492
26.4684
7765
26.4699
7492
26.4714
7491
26.4729
7418
26.4743
7566
26.4758
7542
26.4753
7540
26.4734
7619
26.4714
7661
26.4694
7603
26.4674
7617
26.4654
7581
26.4635
7585
26.4615
7696
26.4595
7585
26.4575
7591
26.4556
7517
26.4536
7570
26.4516
7675
26.4496
7711
26.4476
7705
26.4457
7535
26.4437
7761
26.4417
7653
26.4397
7653
26.4377
7635
26.4358
7527
26.4338
7598
26.4318
7663
26.4298
7714
26.4278
7666
26.4259
7772
26.4239
7809
26.4219
7653
26.4199
7611
26.4179
7681
26.416
7784
26.414
7732
26.412
7668
26.41
7743
26.4081
7657
26.4061
7812
26.4041
7748
26.4021
7815
26.4001
7922
26.3982
7655
26.3962
7761
26.3942
7760
26.3922
7652
26.3902
7812
26.3883
7733
26.3863
7842
26.3843
7834
26.3823
7844
26.3803
7886
26.3784
7779
26.3764
7607
26.3744
7780
26.3724
7792
26.3704
7789
26.3685
7819
26.3665
7784
26.3645
7735
26.3625
7926
26.3606
7892
26.3586
7851
26.3566
7781
26.3546
7803
26.3526
7883
26.3507
7951
26.3487
7699
26.3467
7884
26.3447
7802
26.3427
7806
26.3408
8010
26.3388
7847
26.3368
7865
26.3348
7938
26.3328
7905
26.3309
7847
26.3289
7898
26.3269
7854
26.3249
7895
26.323
7915
26.321
7937
26.319
7821
26.3165
7699
26.3135
7926
26.3106
7986
26.3076
7874
26.3047
7972
26.3017
7966
26.2988
7906
26.2958
8008
26.2929
8054
26.2899
7805
26.2869
7900
26.284
7903
26.281
7909
26.2781
8029
26.2751
7993
26.2722
8083
26.2692
8056
26.2663
8124
26.2633
8015
26.2604
7940
26.2574
8003
26.2545
8049
26.2515
7995
26.2486
8037
26.2456
8089
26.2427
8097
26.2397
8135
26.2368
8112
26.2338
8122
26.2309
8066
26.2279
7979
26.225
8049
26.222
8048
26.2191
7928
26.2161
8114
26.2132
8119
26.2102
8138
26.2072
8074
26.2043
8111
26.2013
8080
26.1984
8134
26.1954
8085
26.1925
8173
26.1895
8177
26.1866
8128
26.1836
8141
26.1807
8243
26.1777
8217
26.1748
8119
26.1718
8042
26.1689
8036
26.1659
8061
26.163
8209
26.16
8143
26.1571
8216
26.1541
8176
26.1512
8099
26.1482
8308
26.1453
8147
26.1423
8115
26.1394
8170
26.1364
8228
26.1335
8145
26.1305
8215
26.1275
8181
26.1246
8291
26.1216
8293
26.1187
8417
26.1157
8384
26.1128
8349
26.1098
8434
26.1069
8424
26.1039
8340
26.101
8370
26.098
8376
26.0951
8312
26.0921
8446
26.0892
8326
26.0862
8347
26.0833
8206
26.0803
8280
26.0774
8340
26.0744
8346
26.0715
8401
26.0685
8331
26.0656
8438
26.0626
8345
26.0597
8384
26.0567
8465
26.0538
8420
26.0508
8408
26.0478
8397
26.0449
8578
26.0419
8488
26.039
8517
26.036
8317
26.0331
8467
26.0301
8495
26.0272
8388
26.0242
8388
26.0213
8246
26.0183
8300
26.0154
8445
26.0125
8460
26.0095
8457
26.0066
8439
26.0037
8485
26.0007
8469
25.9978
8523
25.9948
8372
25.9919
8522
25.989
8616
25.986
8401
25.9831
8338
25.9801
8368
25.9772
8530
25.9743
8581
25.9713
8610
25.9684
8391
25.9654
8472
25.9625
8424
25.9596
8454
25.9566
8614
25.9537
8629
25.9507
8552
25.9478
8538
25.9449
8518
25.9419
8529
25.939
8567
25.936
8611
25.9331
8498
25.9302
8529
25.9272
8496
25.9243
8548
25.9214
8665
25.9184
8533
25.9155
8595
25.9125
8533
25.9096
8592
25.9067
8634
25.9037
8586
25.9008
8489
25.8978
8667
25.8949
8601
25.892
8718
25.889
8574
25.8861
8738
25.8831
8761
25.8802
9157
25.8773
9078
25.8743
9279
25.8714
9211
25.8684
9208
25.8655
9261
25.8626
9060
25.8596
8756
25.8567
8718
25.8538
8717
25.8508
8737
25.8479
8627
25.8449
8687
25.842
8551
25.8391
8700
25.8361
8615
25.8332
8593
25.8302
8615
25.8273
8646
25.8244
8631
25.8214
8674
25.8185
8695
25.8155
8847
25.8126
8654
25.8097
8794
25.8067
8858
25.8038
8846
25.8008
8802
25.7979
8683
25.795
8957
25.792
8695
25.7891
8710
25.7909
8810
25.7963
8932
25.8018
8955
25.8073
8740
25.8128
8836
25.8183
8967
25.8237
8930
25.8292
8858
25.8347
8800
25.8402
8937
25.8457
8888
25.8511
8820
25.8566
8897
25.8621
8741
25.8676
8830
25.8731
8794
25.8785
8939
25.884
9147
25.8895
9088
25.895
9007
25.9004
9034
25.9059
8978
25.9114
8991
25.9169
9076
25.9224
8909
25.9278
8935
25.9333
8983
25.9388
8950
25.9443
9004
25.9498
8970
25.9552
9083
25.9607
9103
25.9662
9109
25.9717
9188
25.9772
9166
25.9826
9027
25.9881
8996
25.9936
9025
25.9991
9032
26.0046
9117
26.01
8992
26.0155
9118
26.021
9167
26.0265
9319
26.0319
9215
26.0374
9171
26.0429
9237
26.0484
9343
26.0539
9354
26.0593
9372
26.0648
9278
26.0703
9042
26.0758
9134
26.0813
9244
26.0867
9282
26.0922
9199
26.0977
9195
26.1032
9289
26.1087
9306
26.1141
9328
26.1196
9333
26.1251
9432
26.1306
9427
26.1361
9505
26.1415
9533
26.147
9465
26.1525
9561
26.158
9695
26.1635
9628
26.1689
9763
26.1744
9673
26.1799
9786
26.1854
9768
26.1908
9661
26.1963
9534
26.2018
9796
26.2073
9900
26.2128
10007
26.2182
9927
26.2237
9861
26.2292
9678
26.2347
9612
26.2402
9607
26.2456
9808
26.2511
9660
26.2566
9631
26.2621
9697
26.2676
9595
26.273
9546
26.2785
9567
26.284
9594
26.2895
9477
26.295
9642
26.3004
9522
26.3059
9587
26.3114
9715
26.3169
9686
26.3223
9657
26.3278
9359
26.3333
9394
26.3388
9500
26.3443
9476
26.3497
9433
26.3552
9396
26.3607
9189
26.3662
9310
26.3717
9374
26.3771
9412
26.3826
9275
26.3881
9350
26.3936
9325
26.3991
9283
26.4045
9301
26.41
9401
26.4155
9399
26.421
9300
26.4265
9337
26.4319
9466
26.4374
9440
26.4429
9431
26.4484
9356
26.4539
9518
26.4593
9613
26.4648
9743
26.4703
9936
26.4758
9955
26.4812
9932
26.4867
9976
26.4922
10068
26.4977
10057
26.5032
10125
26.5086
10302
26.5141
10250
26.5196
10325
26.5251
10478
26.5306
10517
26.536
10592
26.5415
10557
26.547
10550
26.5525
10674
26.558
10584
26.5634
10703
26.5689
10690
26.5744
10852
26.5799
10763
26.5854
10744
26.5908
10796
26.5963
10948
26.6018
10838
26.6073
10790
26.6127
10679
26.6182
10665
26.6237
10598
26.6292
10318
26.6347
10325
26.6401
10351
26.6456
10168
26.6511
9967
26.6566
9973
26.6621
9634
26.6675
9258
26.673
8855
26.6785
8425
26.684
8153
26.6895
7841
26.6949
7581
26.7004
7412
26.7059
7102
26.7114
6810
26.7169
6507
26.7223
6383
26.7278
6057
26.7333
6020
26.7388
5798
26.7443
5690
26.7497
5700
26.7552
5551
26.7607
5374
26.7662
5465
26.7716
5495
26.7768
5575
26.7816
5593
26.7864
5562
26.7913
5843
26.7961
6082
26.8009
6240
26.8058
6554
26.8106
6872
26.8154
7305
26.8203
7728
26.8251
8216
26.8299
8740
26.8348
9134
26.8396
9574
26.8444
10409
26.8493
11337
26.8541
12494
26.8589
14199
26.8638
16644
26.8686
19750
26.8734
23606
26.8783
29608
26.8831
40115
26.8879
52207
26.8928
53329
26.8976
41509
26.9024
24448
26.9073
10214
26.9121
3654
26.9169
2084
26.9218
1667
26.9266
1433
26.9314
1275
26.9363
1116
26.9411
1027
26.9459
960
26.9507
864
26.9556
828
26.9604
767
26.9652
738
26.9701
739
26.9749
713
26.9797
712
26.9846
707
26.9894
623
26.9942
698
26.9991
668
27.0039
666
27.0087
696
27.0136
673
27.0184
678
27.0232
692
27.0281
692
27.0329
661
27.0377
671
27.0426
631
27.0474
646
27.0522
683
27.0571
636
27.0619
618
27.0667
645
27.0716
656
27.0764
678
27.0812
664
27.0861
639
27.0909
603
27.0957
634
27.1006
653
27.1054
670
27.1102
672
27.1151
645
27.1199
704
27.1247
656
27.1296
665
27.1344
676
27.1392
660
27.1441
674
27.1489
704
27.1537
692
27.1586
676
27.1634
669
27.1682
698
27.1731
671
27.1779
683
27.1827
667
27.1876
650
27.1924
669
27.1972
686
27.2021
696
27.2069
680
27.2117
684
27.2166
620
27.2214
623
27.2262
650
27.2311
687
27.2359
638
27.2407
644
27.2456
653
27.2504
654
27.2552
632
27.2579
638
27.2589
644
27.26
629
27.261
637
27.262
660
27.263
609
27.264
650
27.265
624
27.2661
627
27.2671
655
27.2681
618
27.2691
681
27.2701
630
27.2711
627
27.2722
607
27.2732
640
27.2742
673
27.2752
644
27.2762
654
27.2772
647
27.2783
642
27.2793
656
27.2803
683
27.2813
705
27.2823
739
27.2833
803
27.2844
840
27.2854
882
27.2864
914
27.2874
870
27.2884
852
27.2894
778
27.2905
760
27.2915
725
27.2925
685
27.2935
676
27.2945
625
27.2955
635
27.2966
639
27.2976
631
27.2986
640
27.2996
647
27.3006
626
27.3016
590
27.3027
640
27.3037
624
27.3047
626
27.3057
591
27.3067
632
27.3077
629
27.3088
635
27.3098
600
27.3108
574
27.3118
624
27.3128
656
27.3138
645
27.3149
633
27.3159
593
27.3169
636
27.3179
612
27.3189
619
27.3199
605
27.321
599
27.322
632
27.323
624
27.324
622
27.325
617
27.326
648
27.3271
599
27.3281
587
27.3291
630
27.3301
629
27.3311
598
27.3321
638
27.3332
628
27.3342
642
27.3352
631
27.3362
613
27.3372
589
27.3382
623
27.3393
594
27.3403
590
27.3413
582
27.3423
611
27.3433
655
27.3443
618
27.3454
601
27.3464
625
27.3474
665
27.3484
678
27.3494
660
27.3504
673
27.3515
679
27.3525
636
27.3535
594
27.3545
651
27.3555
627
27.3565
628
27.3576
647
27.3586
666
27.3596
665
27.3606
654
27.3616
641
27.3626
635
27.3637
628
27.3647
655
27.3657
684
27.3667
700
27.3677
682
27.3687
704
27.3698
661
27.3708
673
27.3718
630
27.3728
632
27.3738
645
27.3748
608
27.3759
624
27.3769
664
27.3779
605
27.3789
588
27.3785
618
27.3771
610
27.3756
656
27.3741
602
27.3726
626
27.3711
597
27.3696
610
27.3682
634
27.3667
575
27.3652
609
27.3637
607
27.3622
604
27.3608
599
27.3593
573
27.3578
554
27.3563
569
27.3548
570
27.3534
612
27.3519
606
27.3504
631
27.3489
607
27.3474
588
27.346
605
27.3445
590
27.343
581
27.3415
611
27.34
602
27.3386
621
27.3371
605
27.3356
616
27.3341
641
27.3326
681
27.3312
778
27.3297
882
27.3282
967
27.3267
1050
27.3252
1099
27.3238
1039
27.3223
927
27.3208
775
27.3193
662
27.3178
611
27.3164
605
27.3149
562
27.3134
557
27.3119
546
27.3104
557
27.309
574
27.3075
550
27.306
545
27.3045
541
27.303
569
27.3016
590
27.3001
607
27.2986
629
27.2971
576
27.2956
575
27.2942
624
27.2927
619
27.2912
642
27.2897
671
27.2882
657
27.2867
687
27.2853
731
27.2838
693
27.2823
677
27.2808
666
27.2793
661
27.2779
602
27.2764
604
27.2749
604
27.2734
591
27.2719
535
27.2705
547
27.269
569
27.2675
562
27.266
604
27.2645
604
27.2631
559
27.2616
536
27.2601
555
27.2586
572
27.2571
559
27.2557
572
27.2542
560
27.2527
583
27.2512
594
27.2497
613
27.2483
589
27.2468
548
27.2453
567
27.2438
528
27.2423
553
27.2409
566
27.2394
596
27.2379
581
27.2364
572
27.2349
596
27.2335
593
27.232
601
27.2305
594
27.229
571
27.2275
585
27.2261
560
27.2246
559
27.2231
577
27.2216
572
27.2201
617
27.2187
569
27.2172
577
27.2157
587
27.2142
585
27.2197
609
27.2307
585
27.2417
565
27.2528
578
27.2638
596
27.2748
566
27.2858
548
27.2968
573
27.3078
612
27.3188
564
27.3298
607
27.3409
606
27.3519
562
27.3629
592
27.3739
572
27.3849
553
27.3959
560
27.4069
609
27.4179
599
27.4289
571
27.44
578
27.451
591
27.462
587
27.473
552
27.484
591
27.495
611
27.506
581
27.517
555
27.5281
565
27.5391
585
27.5501
601
27.5611
625
27.5721
581
27.5831
597
27.5941
582
27.6051
601
27.6161
596
27.6272
578
27.6382
579
27.6492
536
27.6602
602
27.6712
591
27.6822
595
27.6932
593
27.7042
607
27.7153
608
27.7263
604
27.7373
628
27.7483
610
27.7593
624
27.7703
656
27.7813
696
27.7923
710
27.8034
774
27.8144
724
27.8254
696
27.8364
688
27.8474
677
27.8584
658
27.8694
607
27.8804
621
27.8914
576
27.9025
597
27.9135
552
27.9245
588
27.9355
604
27.9465
565
27.9575
560
27.9685
575
27.9795
550
27.9906
584
28.0016
593
28.0126
570
28.0236
606
28.0346
593
28.0456
602
28.0566
606
28.0676
638
28.0786
619
28.0897
670
28.1007
647
28.1117
663
28.1227
683
28.1337
665
28.1447
631
28.1557
613
28.1667
620
28.1778
579
28.1888
560
28.1998
609
28.2108
567
28.2218
586
28.2328
598
28.2438
552
28.2548
611
28.2658
600
28.2769
614
28.2879
616
28.2989
596
28.3099
616
28.3209
625
28.3319
633
28.3429
602
28.3539
622
28.365
594
28.376
652
28.387
617
28.398
629
28.409
628
28.42
631
28.431
599
28.442
603
28.453
607
28.4641
567
28.4751
641
28.4861
608
28.4971
610
28.5081
608
28.5191
600
28.5301
615
28.5411
593
28.5522
647
28.5632
606
28.5742
613
28.5852
604
28.5962
596
28.6072
584
28.6182
578
28.6292
607
28.6402
609
28.6513
638
28.6623
619
28.6733
616
28.6843
586
28.6953
597
28.7063
610
28.7173
601
28.7283
646
28.7394
614
28.7504
598
28.7614
615
28.7724
621
28.7834
624
28.7944
658
28.8054
602
28.8164
603
28.8274
668
28.8385
658
28.8495
648
28.8605
681
28.8715
701
28.8825
670
28.8935
660
28.9045
657
28.9155
688
28.9266
671
28.9376
760
28.9486
750
28.9596
698
28.9706
692
28.9816
742
28.9926
710
29.0036
707
29.0146
665
29.0257
652
29.0367
674
29.0477
664
29.0587
654
29.0697
683
29.0807
671
29.0917
683
29.1027
654
29.1138
657
29.1248
685
29.1358
646
29.1468
633
29.1578
637
29.1688
641
29.1798
636
29.1908
609
29.2018
612
29.2129
613
29.2239
610
29.2349
597
29.2459
563
29.2569
609
29.2679
611
29.2789
574
29.2899
555
29.301
584
29.312
581
29.323
569
29.334
524
29.345
522
29.356
552
29.367
582
29.378
607
29.389
597
29.4001
596
29.4111
627
29.4221
665
29.4331
701
29.4441
778
29.4551
808
29.4661
839
29.4771
841
29.4882
913
29.4992
916
29.504
894
29.504
940
29.504
943
29.504
910
29.504
834
29.504
786
29.504
768
29.504
701
29.504
662
29.504
686
29.504
723
29.504
802
29.504
790
29.504
843
29.504
817
29.504
884
29.504
854
29.504
851
29.504
827
29.504
802
29.504
822
29.504
779
29.504
812
29.504
793
29.504
761
29.504
741
29.504
702
29.504
720
29.504
635
29.504
575
29.504
552
29.504
548
29.504
560
29.504
576
29.504
549
29.504
489
29.504
482
29.504
378
29.504
368
29.504
317
29.504
305
29.504
277
29.504
256
29.504
228
29.504
195
29.504
167
29.504
133
29.504
98
29.504
84
29.504
48
29.504
35
29.504
33
29.504
22
29.504
C 1s/13
Not Specified
2017
12
11
13
47
44
0
9
Casa Info Follows
1
Calib M = 284.103 A = 284.5 BE ADD
0
0
0
   XPS     Spectrum    Lens Mode:Hybrid   Resolution:Pass energy 20    Iris(Aper):slot(Slot)
   Acqn. Time(s): 261        Sweeps: 4        Anode:Mono(Al (Mono))(150 W)   Step(meV): 100.0 
   Dwell Time(ms): 250        Charge Neutraliser :On   Acquired On :17/12/11 13:47:44
XPS
10
1
0
Mono(Al (Mono))
1486.69
150
1e+037
1e+037
6000
6000
1e+037
1e+037
FAT
20
1e+037
-4.803
0
1e+037
1e+037
1e+037
1e+037
C
1s
-1
Kinetic Energy
eV
1186.69
0.1
2
Intensity
d
Transmission
d
pulse counting
0.25
4
0
1e+037
1e+037
1e+037
0
522
141
24713
1.1574
1.16426
1201
1.16426
1217
1.16422
1199
1.16418
1248
1.16414
1231
1.1641
1185
1.16406
1232
1.16402
1201
1.16398
1123
1.16393
1177
1.16389
1169
1.16385
1109
1.16381
1116
1.16377
1095
1.16373
1153
1.16369
1118
1.16365
1141
1.16361
1164
1.16357
1077
1.16352
1126
1.16348
1145
1.16344
1150
1.1634
1119
1.16336
1081
1.16332
1073
1.16328
1043
1.16324
1105
1.1632
1126
1.16315
1094
1.16311
1106
1.16307
1072
1.16303
1077
1.16299
1069
1.16295
1076
1.16292
1051
1.1629
1107
1.16287
1039
1.16285
1112
1.16282
1089
1.1628
1090
1.16278
1127
1.16275
1092
1.16273
1106
1.1627
1064
1.16268
1085
1.16265
1096
1.16263
1115
1.16261
1146
1.16258
1163
1.16256
1168
1.16253
1129
1.16251
1158
1.16248
1124
1.16246
1202
1.16244
1215
1.16241
1156
1.16239
1170
1.16236
1273
1.16234
1228
1.16231
1233
1.16229
1297
1.16226
1308
1.16224
1198
1.16222
1205
1.16219
1274
1.16217
1265
1.16214
1263
1.16212
1218
1.16209
1271
1.16207
1268
1.16205
1301
1.16202
1244
1.162
1265
1.16197
1288
1.16195
1365
1.16192
1323
1.1619
1302
1.16188
1308
1.16185
1389
1.16183
1415
1.1618
1398
1.16178
1401
1.16175
1459
1.16173
1516
1.16171
1495
1.16168
1512
1.16166
1571
1.16163
1547
1.16161
1559
1.16158
1614
1.16156
1602
1.16153
1685
1.16151
1622
1.16149
1686
1.16146
1655
1.16144
1637
1.16141
1662
1.16139
1681
1.16136
1674
1.16134
1732
1.16132
1638
1.16129
1683
1.16127
1689
1.16124
1732
1.16122
1739
1.16119
1816
1.16117
1865
1.16115
1917
1.16112
1860
1.1611
1900
1.16107
1935
1.16105
2069
1.16102
2048
1.161
2070
1.16097
2109
1.16095
2103
1.16093
2076
1.1609
2086
1.16088
2111
1.16085
2121
1.16083
2131
1.1608
2260
1.16078
2193
1.16076
2234
1.16073
2307
1.16071
2434
1.16068
2540
1.16066
2691
1.16063
2841
1.16061
3057
1.16059
3238
1.16056
3476
1.16054
3677
1.16051
3964
1.16049
4057
1.16046
4141
1.16044
4368
1.16042
4418
1.16039
4390
1.16037
4457
1.16034
4386
1.16032
4426
1.16029
4314
1.16027
4340
1.16024
4643
1.16022
4751
1.1602
4955
1.16017
5367
1.16015
5762
1.16012
6302
1.1601
6913
1.16007
7727
1.16005
8966
1.16003
10575
1.16
12735
1.15998
15349
1.15995
18589
1.15993
22455
1.1599
24644
1.15988
24713
1.15986
22117
1.15983
18079
1.15981
13525
1.15978
9450
1.15976
6308
1.15973
4121
1.15971
2648
1.15969
1751
1.15966
1307
1.15964
977
1.15961
746
1.15959
586
1.15956
514
1.15954
457
1.15951
420
1.15949
392
1.15947
363
1.15944
312
1.15942
329
1.15939
296
1.15937
268
1.15934
255
1.15932
273
1.1593
240
1.15927
218
1.15925
250
1.15922
238
1.1592
219
1.15917
231
1.15915
236
1.15913
220
1.1591
196
1.15908
206
1.15905
184
1.15903
224
1.159
208
1.15898
196
1.15895
194
1.15893
181
1.15891
195
1.15888
189
1.15886
198
1.15883
186
1.15881
199
1.15878
196
1.15876
185
1.15874
170
1.15871
191
1.15869
165
1.15866
206
1.15864
181
1.15861
175
1.15859
176
1.15857
180
1.15854
178
1.15852
190
1.15849
196
1.15847
183
1.15844
171
1.15842
161
1.1584
185
1.15837
208
1.15835
175
1.15832
166
1.1583
148
1.15827
158
1.15825
167
1.15822
150
1.1582
153
1.15818
166
1.15815
165
1.15813
172
1.1581
161
1.15808
186
1.15805
185
1.15803
186
1.15801
181
1.15798
165
1.15796
168
1.15793
161
1.15791
179
1.15788
168
1.15786
160
1.15784
174
1.15781
152
1.15779
167
1.15776
141
1.15774
166
1.15771
167
1.15769
179
1.15767
147
1.15764
152
1.15762
158
1.15759
173
1.15757
170
1.15754
147
1.15752
158
1.15749
186
1.15747
162
1.15745
152
1.15742
154
1.1574
N 1s/14
Not Specified
2017
12
11
13
47
44
0
9
Casa Info Follows
1
Calib M = 284.103 A = 284.5 BE ADD
0
0
0
   XPS     Spectrum    Lens Mode:Hybrid   Resolution:Pass energy 20    Iris(Aper):slot(Slot)
   Acqn. Time(s): 241        Sweeps: 4        Anode:Mono(Al (Mono))(150 W)   Step(meV): 100.0 
   Dwell Time(ms): 298        Charge Neutraliser :On   Acquired On :17/12/11 13:47:44
XPS
10
1
0
Mono(Al (Mono))
1486.69
150
1e+037
1e+037
6000
6000
1e+037
1e+037
FAT
20
1e+037
-4.803
0
1e+037
1e+037
1e+037
1e+037
N
1s
-1
Kinetic Energy
eV
1076.69
0.1
2
Intensity
d
Transmission
d
pulse counting
0.2985
4
0
1e+037
1e+037
1e+037
0
404
2134
2453
1.20216
1.21679
2174
1.21679
2179
1.21671
2215
1.21664
2205
1.21657
2181
1.2165
2200
1.21642
2205
1.21635
2154
1.21628
2247
1.21621
2276
1.21613
2157
1.21606
2173
1.21599
2174
1.21591
2236
1.21584
2218
1.21577
2220
1.2157
2223
1.21562
2255
1.21555
2238
1.21548
2246
1.2154
2169
1.21533
2282
1.21526
2241
1.21519
2200
1.21511
2175
1.21504
2166
1.21497
2199
1.2149
2181
1.21482
2187
1.21475
2247
1.21468
2215
1.2146
2256
1.21453
2184
1.21446
2237
1.21439
2291
1.21431
2209
1.21424
2251
1.21417
2234
1.2141
2204
1.21402
2225
1.21395
2237
1.21388
2291
1.2138
2257
1.21373
2262
1.21366
2251
1.21359
2313
1.21351
2290
1.21344
2298
1.21337
2227
1.21329
2223
1.21322
2134
1.21315
2273
1.21308
2261
1.213
2232
1.21293
2244
1.21286
2273
1.21279
2237
1.21271
2198
1.21264
2220
1.21257
2243
1.21249
2248
1.21242
2186
1.21235
2206
1.21228
2192
1.2122
2199
1.21213
2237
1.21206
2263
1.21198
2291
1.21191
2252
1.21184
2321
1.21177
2222
1.21169
2282
1.21162
2298
1.21155
2361
1.21148
2357
1.2114
2316
1.21133
2311
1.21126
2261
1.21118
2354
1.21111
2318
1.21104
2406
1.21097
2386
1.21089
2360
1.21082
2342
1.21075
2396
1.21068
2440
1.2106
2429
1.21053
2417
1.21046
2449
1.21038
2405
1.21031
2453
1.21024
2422
1.21017
2379
1.21009
2427
1.21002
2371
1.20995
2334
1.20987
2359
1.2098
2290
1.20973
2414
1.20966
2400
1.20958
2399
1.20951
2361
1.20944
2320
1.20937
2297
1.20929
2414
1.20922
2362
1.20915
2384
1.20907
2373
1.209
2345
1.20893
2372
1.20886
2355
1.20878
2341
1.20871
2318
1.20864
2305
1.20856
2317
1.20849
2390
1.20842
2254
1.20835
2269
1.20827
2209
1.2082
2299
1.20813
2206
1.20806
2151
1.20798
2229
1.20791
2248
1.20784
2182
1.20776
2224
1.20769
2180
1.20762
2224
1.20755
2225
1.20747
2278
1.2074
2298
1.20733
2247
1.20726
2243
1.20718
2226
1.20711
2172
1.20704
2225
1.20696
2224
1.20689
2274
1.20682
2251
1.20675
2279
1.20667
2267
1.2066
2268
1.20653
2202
1.20645
2206
1.20638
2194
1.20631
2221
1.20624
2213
1.20616
2229
1.20609
2254
1.20602
2208
1.20595
2291
1.20587
2340
1.2058
2264
1.20573
2182
1.20565
2225
1.20558
2251
1.20551
2195
1.20544
2247
1.20536
2243
1.20529
2207
1.20522
2177
1.20514
2218
1.20507
2224
1.205
2235
1.20493
2282
1.20485
2286
1.20478
2271
1.20471
2246
1.20464
2217
1.20456
2286
1.20449
2236
1.20442
2264
1.20434
2262
1.20427
2253
1.2042
2207
1.20413
2229
1.20405
2333
1.20398
2244
1.20391
2245
1.20384
2238
1.20376
2260
1.20369
2254
1.20362
2211
1.20354
2244
1.20347
2234
1.2034
2257
1.20333
2215
1.20325
2256
1.20318
2215
1.20311
2295
1.20303
2248
1.20296
2191
1.20289
2205
1.20282
2151
1.20274
2228
1.20267
2186
1.2026
2287
1.20253
2276
1.20245
2291
1.20238
2228
1.20231
2234
1.20223
2201
1.20216
Survey/17
Not Specified
2017
12
11
13
58
7
0
16
Casa Info Follows
1
Calib M = 284.186 A = 284.5 BE ADD
1
annot regions Display 0.05 0.05 RGB(0,0,0) Font(12,18,0,0,Times New Roman)

5
CASA region (*O 1s*) (*Shirley*) 947.28312 959.18278 0.78 1 0 0 299 542 275 9.3 (*O 1s*) 15.9994
CASA region (*C 1s*) (*Shirley*) 1189.2363 1207.626 0.278 1 0 0 299 542 275 9.3 (*C 1s*) 12.011
CASA region (*N 1s*) (*Shirley*) 1082.126 1089.9494 0.477 1 0 0 299 542 275 9.3 (*N 1s*) 14.0067
CASA region (*S 2p*) (*Shirley*) 1314.3284 1321.4486 0.668 1 0 0 299 542 275 9.3 (*S 2p*) 32.0648
CASA region (*F 1s*) (*Shirley*) 798.57398 803.06077 1 1 0 0 299 542 275 9.3 (*F 1s*) 18.9984
0
   XPS     Spectrum    Lens Mode:Hybrid   Resolution:Pass energy 160   Iris(Aper):slot(Slot)
   Acqn. Time(s): 540        Sweeps: 2        Anode:Mono(Al (Mono))(150 W)   Step(meV): 500.0 
   Dwell Time(ms): 100        Charge Neutraliser :On   Acquired On :17/12/11 13:58:07
XPS
14
1
0
Mono(Al (Mono))
1486.69
150
1e+037
1e+037
6000
6000
1e+037
1e+037
FAT
160
1e+037
-4.803
0
1e+037
1e+037
1e+037
1e+037
Wide
None
-1
Kinetic Energy
eV
136.69
0.5
2
Intensity
d
Transmission
d
pulse counting
0.1
2
0
1e+037
1e+037
1e+037
0
5402
14
46286
25.7891
29.504
7961
27.0049
7908
27.0049
7965
27.0049
8079
27.0049
8081
27.0049
8037
27.0049
8045
27.0049
7983
27.0049
8085
27.0049
8040
27.0049
7900
27.0049
7953
27.0049
8098
27.0049
7998
27.0049
8031
27.0049
8041
27.0049
8009
27.0049
7850
27.0049
8003
27.0049
7979
27.0049
7757
27.0049
7955
27.0049
7916
27.0049
8026
27.0049
8179
27.0049
7986
27.0049
7907
27.0049
7840
27.0049
7872
27.0049
7913
27.0049
7972
27.0049
8040
27.0049
7845
27.0049
7890
27.0049
8038
27.0049
8139
27.0049
8015
27.0049
8014
27.0049
8064
27.0049
8136
27.0049
8113
27.0049
7988
27.0049
7973
27.0049
8008
27.0049
8020
27.0049
7996
27.0049
8062
27.0049
8043
27.0049
8114
27.0049
7998
27.0049
7995
27.0049
7984
27.0049
8082
27.0049
7846
27.0049
7878
27.0049
8020
27.0049
8082
27.0049
8037
27.0049
8000
27.0049
8057
27.0049
7999
27.0049
8147
27.0049
8104
27.0049
8101
27.0049
8139
27.0049
8112
27.0049
7927
27.0049
8101
27.0049
8253
27.0049
8059
27.0049
8041
27.0049
8042
27.0049
8134
27.0049
8042
27.0049
8046
27.0049
7934
27.0049
7981
27.0049
8052
27.0049
8078
27.0049
8102
27.0049
8035
27.0049
8169
27.0049
8196
27.0049
8089
27.0049
8089
27.0049
8110
27.0049
8149
27.0049
8246
27.0049
8403
27.0049
8587
27.0049
8823
27.0049
8976
27.0049
9143
27.0049
9067
27.0049
8859
27.0049
8516
27.0049
8507
27.0049
8322
27.0049
8268
27.0049
8172
27.0049
8392
27.0049
8318
27.0049
8341
27.0049
8403
27.0049
8382
27.0049
8327
27.0049
8251
27.0049
8166
27.0049
8171
27.0049
8301
27.0049
8307
27.0049
8339
27.0049
8287
27.0049
8309
27.0049
8138
27.0049
8392
27.0049
8482
27.0049
8506
27.0049
8555
27.0049
8471
27.0049
8458
27.0049
8450
27.0049
8500
27.0049
8402
27.0049
8510
27.0049
8454
27.0049
8317
27.0049
8389
27.0049
8372
27.0049
8563
27.0049
8620
27.0049
8522
27.0049
8550
27.0049
8577
27.0049
8477
27.0049
8506
27.0049
8550
27.0049
8556
27.0049
8716
27.0049
8635
27.0049
8661
27.0049
8582
27.0049
8655
27.0049
8726
27.0049
8698
27.0049
8597
27.0049
8675
27.0049
8595
27.005
8672
27.005
8642
27.0051
8626
27.0051
8654
27.0052
8759
27.0052
8816
27.0053
8918
27.0054
8696
27.0054
8827
27.0055
8824
27.0055
8858
27.0056
8925
27.0056
8948
27.0057
8930
27.0057
8863
27.0058
8829
27.0059
8791
27.0059
8902
27.006
8934
27.006
8830
27.0061
8888
27.0061
8924
27.0062
8951
27.0063
9058
27.0063
9006
27.0064
9121
27.0064
9206
27.0065
9128
27.0065
9085
27.0066
9059
27.0067
8991
27.0067
9043
27.0068
8942
27.0068
9164
27.0069
9216
27.0069
9248
27.007
9071
27.007
9118
27.0071
9277
27.0072
9251
27.0072
9226
27.0073
9238
27.0073
9196
27.0074
9171
27.0074
9371
27.0075
9307
27.0076
9444
27.0076
9397
27.0077
9382
27.0077
9354
27.0078
9322
27.0078
9503
27.0079
9423
27.008
9478
27.008
9409
27.0081
9575
27.0081
9662
27.0082
9607
27.0082
9805
27.0083
9784
27.0083
9826
27.0084
9642
27.0085
9705
27.0085
9822
27.0086
9765
27.0086
9555
27.0087
9607
27.0087
9875
27.0088
9717
27.0089
9678
27.0089
9820
27.009
9725
27.009
9841
27.0091
9843
27.0091
9830
27.0092
9737
27.0093
9851
27.0093
9797
27.0094
9671
27.0094
9602
27.0095
9696
27.0095
9699
27.0096
9909
27.0096
10043
27.0097
10068
27.0098
10179
27.0098
10294
27.0099
10180
27.0099
10267
27.01
10397
27.01
10399
27.0101
10531
27.0102
10623
27.0102
10622
27.0103
10616
27.0103
10605
27.0104
10742
27.0104
10913
27.0105
10924
27.0105
10866
27.0115
10829
27.0131
10804
27.0148
10755
27.0164
10859
27.018
10914
27.0197
10784
27.0213
10858
27.0229
11008
27.0246
10781
27.0262
10811
27.0278
10700
27.0295
10635
27.0311
10713
27.0327
10506
27.0344
10421
27.036
10479
27.0377
10300
27.0393
10283
27.0409
10181
27.0426
9969
27.0442
10023
27.0458
9713
27.0475
9540
27.0491
9243
27.0507
9102
27.0524
9076
27.054
8824
27.0556
8514
27.0573
8418
27.0589
8149
27.0605
8162
27.0622
7700
27.0638
7538
27.0655
7450
27.0671
7365
27.0687
7074
27.0704
6997
27.072
6761
27.0736
6658
27.0753
6502
27.0769
6459
27.0785
6266
27.0802
6161
27.0818
6062
27.0834
5997
27.0851
5922
27.0867
5875
27.0883
5887
27.09
5954
27.0916
6037
27.0933
5905
27.0949
5789
27.0965
5765
27.0982
5836
27.0998
5810
27.1014
5912
27.1031
5893
27.1047
5787
27.1063
5806
27.108
5897
27.1096
5968
27.1112
5820
27.1129
5842
27.1145
5847
27.1161
5752
27.1178
5894
27.1194
5794
27.1211
5793
27.1227
5888
27.1243
5945
27.126
5802
27.1276
5768
27.1292
5860
27.1309
5877
27.1325
5903
27.1341
5862
27.1358
5897
27.1374
5819
27.139
5959
27.1407
5935
27.1423
5911
27.1439
5893
27.1456
5933
27.1472
5900
27.1489
5870
27.1505
5900
27.1521
5917
27.1538
5887
27.1554
5917
27.157
5882
27.1587
6049
27.1603
5966
27.1619
5880
27.1636
5960
27.1652
5919
27.1668
5965
27.1685
5932
27.1701
5982
27.1717
6008
27.1734
5862
27.1731
5880
27.1714
5958
27.1697
6104
27.168
6042
27.1663
5969
27.1646
6130
27.1629
5984
27.1612
6007
27.1595
6028
27.1578
5939
27.1561
6054
27.1544
6036
27.1527
6080
27.151
5959
27.1493
5935
27.1476
5973
27.1459
6060
27.1442
6056
27.1425
6070
27.1407
6028
27.139
6136
27.1373
6049
27.1356
6120
27.1339
6101
27.1322
6056
27.1305
6078
27.1288
6118
27.1271
6122
27.1254
6088
27.1237
6082
27.122
6160
27.1203
6128
27.1186
6051
27.1169
6073
27.1152
6087
27.1135
6053
27.1118
6015
27.11
6064
27.1083
5981
27.1066
6010
27.1049
6032
27.1032
6121
27.1015
6222
27.0998
6193
27.0981
6157
27.0964
6179
27.0947
6141
27.093
6080
27.0913
6164
27.0896
6186
27.0879
6326
27.0862
6381
27.0845
6212
27.0828
6226
27.0811
6136
27.0793
6239
27.0776
6181
27.0759
6232
27.0742
6187
27.0725
6144
27.0708
6199
27.0691
6184
27.0674
6189
27.0657
6295
27.064
6266
27.0623
6201
27.0606
6113
27.0589
6187
27.0572
6251
27.0555
6120
27.0538
6236
27.0521
6308
27.0504
6343
27.0487
6267
27.0469
6351
27.0452
6302
27.0435
6201
27.0418
6309
27.0401
6365
27.0384
6255
27.0367
6251
27.035
6335
27.0333
6237
27.0316
6218
27.0299
6344
27.0282
6339
27.0265
6232
27.0248
6250
27.0231
6231
27.0214
6354
27.0197
6358
27.018
6302
27.0162
6391
27.0145
6499
27.0128
6431
27.0111
6397
27.0094
6291
27.0077
6381
27.006
6466
27.0043
6223
27.0023
6271
26.9999
6364
26.9976
6441
26.9953
6382
26.993
6457
26.9907
6330
26.9884
6384
26.9861
6407
26.9837
6376
26.9814
6434
26.9791
6495
26.9768
6445
26.9745
6553
26.9722
6448
26.9699
6393
26.9675
6507
26.9652
6380
26.9629
6456
26.9606
6471
26.9583
6463
26.956
6526
26.9536
6472
26.9513
6467
26.949
6507
26.9467
6498
26.9444
6470
26.9421
6420
26.9398
6396
26.9374
6442
26.9351
6546
26.9328
6457
26.9305
6509
26.9282
6574
26.9259
6581
26.9235
6641
26.9212
6509
26.9189
6547
26.9166
6607
26.9143
6545
26.912
6492
26.9097
6521
26.9073
6520
26.905
6547
26.9027
6534
26.9004
6575
26.8981
6483
26.8958
6600
26.8935
6677
26.8911
6595
26.8888
6567
26.8865
6589
26.8842
6518
26.8819
6596
26.8796
6758
26.8772
6700
26.8749
6607
26.8726
6618
26.8703
6528
26.868
6674
26.8657
6569
26.8634
6739
26.861
6688
26.8587
6584
26.8564
6626
26.8541
6508
26.8518
6578
26.8495
6569
26.8471
6572
26.8448
6599
26.8425
6668
26.8402
6551
26.8379
6564
26.8356
6502
26.8333
6609
26.8309
6498
26.8286
6696
26.8263
6713
26.824
6672
26.8217
6565
26.8194
6686
26.8171
6784
26.8147
6633
26.8124
6670
26.8101
6713
26.8078
6743
26.8055
6721
26.8032
6722
26.8008
6683
26.7985
6765
26.7962
6756
26.7939
6786
26.7916
6690
26.7893
6819
26.787
6736
26.7846
6739
26.7823
6605
26.78
6657
26.7777
6770
26.7754
6766
26.7731
6772
26.7707
6831
26.7682
6682
26.7657
6805
26.7633
6843
26.7608
6804
26.7584
6742
26.7559
6795
26.7534
6922
26.751
6808
26.7485
6850
26.7461
6848
26.7436
6842
26.7411
6846
26.7387
6876
26.7362
6874
26.7337
6835
26.7313
6937
26.7288
6988
26.7264
6899
26.7239
6971
26.7214
6887
26.719
6970
26.7165
6914
26.7141
6853
26.7116
6810
26.7091
6900
26.7067
6821
26.7042
6992
26.7018
6871
26.6993
6930
26.6968
6901
26.6944
7020
26.6919
6877
26.6894
7012
26.687
6901
26.6845
6917
26.6821
6861
26.6796
6926
26.6771
6924
26.6747
6948
26.6722
6971
26.6698
7068
26.6673
7050
26.6648
6963
26.6624
7091
26.6599
7041
26.6574
7105
26.655
6984
26.6525
7053
26.6501
7030
26.6476
7065
26.6451
7081
26.6427
7102
26.6402
6935
26.6378
7045
26.6353
6978
26.6328
6982
26.6304
7002
26.6279
7052
26.6255
7122
26.623
7209
26.6205
7166
26.6181
7084
26.6156
7240
26.6131
7173
26.6107
7136
26.6082
7223
26.6058
7194
26.6033
7139
26.6008
7180
26.5984
7154
26.5959
7109
26.5935
7211
26.591
7181
26.5885
7171
26.5861
7162
26.5836
7076
26.5812
7132
26.5787
7231
26.5762
7274
26.5738
7273
26.5713
7213
26.5688
7257
26.5664
7322
26.5639
7333
26.5615
7251
26.559
7229
26.5565
7247
26.5541
7406
26.5516
7253
26.5492
7195
26.5467
7381
26.5442
7418
26.5418
7232
26.5393
7403
26.5368
7320
26.5344
7276
26.5319
7294
26.5295
7324
26.527
7245
26.5256
7353
26.5249
7436
26.5243
7410
26.5236
7457
26.523
7471
26.5223
7457
26.5217
7542
26.521
7603
26.5204
7458
26.5198
7388
26.5191
7426
26.5185
7419
26.5178
7462
26.5172
7419
26.5165
7485
26.5159
7494
26.5153
7600
26.5146
7339
26.514
7508
26.5133
7628
26.5127
7610
26.512
7537
26.5114
7449
26.5107
7478
26.5101
7558
26.5095
7450
26.5088
7550
26.5082
7530
26.5075
7438
26.5069
7527
26.5062
7493
26.5056
7538
26.5049
7476
26.5043
7562
26.5037
7674
26.503
7564
26.5024
7575
26.5017
7708
26.5011
7578
26.5004
7598
26.4998
7753
26.4992
7650
26.4985
7849
26.4979
7859
26.4972
7922
26.4966
7929
26.4959
7874
26.4953
7836
26.4946
8032
26.494
8123
26.4934
8174
26.4927
8262
26.4921
8148
26.4914
8157
26.4908
8138
26.4901
7961
26.4895
7948
26.4888
8135
26.4882
8062
26.4876
8114
26.4869
7947
26.4863
7883
26.4856
7905
26.485
7738
26.4843
7701
26.4837
7772
26.483
7797
26.4824
7751
26.4818
7536
26.4811
7692
26.4805
7607
26.4798
7542
26.4792
7531
26.4785
7409
26.4779
7417
26.4773
7381
26.4766
7539
26.476
7431
26.4753
7395
26.4747
7402
26.474
7553
26.4734
7455
26.4727
7552
26.4721
7593
26.4715
7718
26.4708
7781
26.4702
7700
26.4695
7817
26.4689
7962
26.4682
8106
26.4676
8310
26.4669
8413
26.4663
8331
26.4657
8311
26.465
8493
26.4644
8619
26.4637
8765
26.4631
8816
26.4624
8760
26.4618
8815
26.461
8805
26.4601
9028
26.4592
8777
26.4583
8668
26.4574
8493
26.4565
8527
26.4556
8505
26.4547
8390
26.4539
8075
26.453
8087
26.4521
8021
26.4512
7968
26.4503
7817
26.4494
7667
26.4485
7384
26.4476
7410
26.4467
7192
26.4458
7096
26.4449
6880
26.444
6706
26.4431
6487
26.4422
6437
26.4413
6358
26.4404
6305
26.4395
6257
26.4387
6205
26.4378
6196
26.4369
6113
26.436
6094
26.4351
5959
26.4342
5982
26.4333
5990
26.4324
5938
26.4315
6013
26.4306
6053
26.4297
5989
26.4288
5961
26.4279
5999
26.427
5986
26.4261
5963
26.4252
6005
26.4243
5977
26.4234
5955
26.4226
5886
26.4217
5905
26.4208
5887
26.4199
5944
26.419
5921
26.4181
5950
26.4172
5932
26.4163
5938
26.4154
5964
26.4145
5962
26.4136
5951
26.4127
5958
26.4118
5927
26.4109
5887
26.41
5854
26.4091
6042
26.4082
6056
26.4074
6077
26.4065
5943
26.4056
5991
26.4047
6135
26.4038
6053
26.4029
6065
26.402
6031
26.4011
6078
26.4002
5991
26.3993
6059
26.3984
6038
26.3975
6021
26.3966
6070
26.3957
6104
26.3948
6057
26.3939
5994
26.393
6082
26.3921
5995
26.3913
6014
26.3904
6173
26.3895
6068
26.3886
6001
26.3877
6051
26.3868
6099
26.3859
6180
26.385
6085
26.3841
6045
26.3832
6044
26.3823
6101
26.3814
6043
26.3805
6171
26.3796
6058
26.3787
6011
26.3778
6079
26.3769
6088
26.376
6127
26.3752
6198
26.3743
6125
26.3734
6109
26.3725
6057
26.3723
6085
26.3727
6091
26.3731
6078
26.3735
6211
26.3738
6210
26.3742
6291
26.3746
6094
26.375
6160
26.3754
5952
26.3758
6217
26.3762
6226
26.3766
6202
26.3769
6107
26.3773
6090
26.3777
5996
26.3781
6155
26.3785
6135
26.3789
6221
26.3793
6254
26.3797
6259
26.38
6142
26.3804
6119
26.3808
6152
26.3812
6250
26.3816
6067
26.382
6170
26.3824
6127
26.3828
6150
26.3831
6218
26.3835
6187
26.3839
6109
26.3843
6237
26.3847
6229
26.3851
6208
26.3855
6174
26.3859
6082
26.3862
6245
26.3866
6288
26.387
6236
26.3874
6204
26.3878
6198
26.3882
6094
26.3886
6341
26.389
6329
26.3893
6285
26.3897
6261
26.3901
6260
26.3905
6321
26.3909
6248
26.3913
6261
26.3917
6165
26.3921
6301
26.3924
6321
26.3928
6288
26.3932
6298
26.3936
6244
26.394
6222
26.3944
6308
26.3948
6257
26.3952
6352
26.3955
6215
26.3959
6220
26.3963
6304
26.3967
6313
26.3971
6385
26.3975
6353
26.3979
6397
26.3983
6411
26.3986
6266
26.399
6192
26.3994
6260
26.3998
6316
26.4002
6233
26.4006
6442
26.401
6290
26.4014
6151
26.4017
6351
26.4021
6364
26.4025
6344
26.4029
6297
26.4033
6468
26.4037
6281
26.4041
6426
26.4045
6397
26.4048
6303
26.4052
6349
26.4056
6403
26.406
6367
26.4064
6338
26.4068
6440
26.4072
6360
26.4076
6431
26.4079
6437
26.4083
6497
26.4087
6477
26.4091
6428
26.4095
6509
26.4099
6450
26.4103
6328
26.4107
6339
26.4113
6391
26.4123
6482
26.4132
6496
26.4141
6515
26.4151
6391
26.416
6431
26.4169
6369
26.4179
6446
26.4188
6443
26.4197
6477
26.4207
6491
26.4216
6532
26.4225
6414
26.4234
6345
26.4244
6479
26.4253
6450
26.4262
6365
26.4272
6487
26.4281
6475
26.429
6552
26.43
6518
26.4309
6543
26.4318
6361
26.4328
6496
26.4337
6482
26.4346
6508
26.4356
6442
26.4365
6566
26.4374
6435
26.4383
6420
26.4393
6523
26.4402
6510
26.4411
6499
26.4421
6487
26.443
6502
26.4439
6541
26.4449
6536
26.4458
6570
26.4467
6576
26.4477
6653
26.4486
6544
26.4495
6615
26.4505
6642
26.4514
6531
26.4523
6436
26.4532
6635
26.4542
6525
26.4551
6439
26.456
6513
26.457
6551
26.4579
6579
26.4588
6674
26.4598
6422
26.4607
6473
26.4616
6458
26.4626
6624
26.4635
6550
26.4644
6570
26.4654
6586
26.4663
6658
26.4672
6663
26.4681
6669
26.4691
6580
26.47
6542
26.4709
6553
26.4719
6619
26.4728
6665
26.4737
6626
26.4747
6622
26.4756
6593
26.4765
6570
26.4775
6592
26.4784
6593
26.4793
6626
26.4803
6650
26.4812
6629
26.4821
6639
26.483
6597
26.484
6651
26.4849
6608
26.4858
6600
26.4868
6713
26.4877
6787
26.4886
6771
26.4896
6688
26.4905
6780
26.4914
6730
26.4924
6688
26.4933
6691
26.4942
6771
26.4952
6664
26.4961
6786
26.497
6630
26.4979
6619
26.4989
6599
26.4998
6808
26.5007
6674
26.5017
6724
26.5026
6748
26.5035
6739
26.5032
6828
26.5018
6719
26.5005
6671
26.4991
6712
26.4977
6712
26.4964
6723
26.495
6703
26.4937
6817
26.4923
6868
26.4909
6732
26.4896
6730
26.4882
6594
26.4868
6665
26.4855
6763
26.4841
6677
26.4828
6650
26.4814
6798
26.48
6763
26.4787
6614
26.4773
6687
26.476
6806
26.4746
6733
26.4732
6760
26.4719
6627
26.4705
6659
26.4691
6760
26.4678
6700
26.4664
6674
26.4651
6694
26.4637
6732
26.4623
6702
26.461
6888
26.4596
6784
26.4583
6763
26.4569
6719
26.4555
6811
26.4542
6806
26.4528
6789
26.4515
6730
26.4501
6716
26.4487
6709
26.4474
6771
26.446
6755
26.4446
6695
26.4433
6740
26.4419
6841
26.4406
6846
26.4392
6940
26.4378
6891
26.4365
6789
26.4351
6903
26.4338
6865
26.4324
6843
26.431
6881
26.4297
6830
26.4283
6666
26.427
6841
26.4256
6759
26.4242
6913
26.4229
6829
26.4215
6829
26.4201
6840
26.4188
6855
26.4174
6895
26.4161
6922
26.4147
6852
26.4133
6861
26.412
6912
26.4106
6896
26.4093
6835
26.4079
6773
26.4065
6918
26.4052
6954
26.4038
6857
26.4024
6845
26.4011
6844
26.3997
6880
26.3984
6746
26.397
6933
26.3956
6963
26.3942
6992
26.3928
6897
26.3914
6902
26.3899
6902
26.3885
6904
26.387
7001
26.3856
6986
26.3841
6911
26.3827
6985
26.3813
6937
26.3798
6981
26.3784
6961
26.3769
6998
26.3755
6900
26.3741
6938
26.3726
6988
26.3712
6938
26.3697
6981
26.3683
6928
26.3669
7057
26.3654
7051
26.364
7061
26.3625
7069
26.3611
6936
26.3597
7030
26.3582
6918
26.3568
6989
26.3553
6912
26.3539
7104
26.3524
7114
26.351
7075
26.3496
7013
26.3481
7073
26.3467
6990
26.3452
6980
26.3438
6894
26.3424
7042
26.3409
7034
26.3395
7075
26.338
7126
26.3366
7122
26.3352
7082
26.3337
7099
26.3323
6955
26.3308
7000
26.3294
7108
26.328
7077
26.3265
7095
26.3251
7095
26.3236
7115
26.3222
7015
26.3208
7120
26.3193
7105
26.3179
7205
26.3164
7207
26.315
7086
26.3135
6996
26.3121
7050
26.3107
7032
26.3092
7163
26.3078
7149
26.3063
7118
26.3049
7105
26.3035
6985
26.302
7181
26.3006
7215
26.2991
7168
26.2977
7202
26.2963
7091
26.2948
7154
26.2934
7302
26.2919
7272
26.2905
7262
26.2891
7164
26.2876
7051
26.2862
7148
26.2847
7233
26.2833
7250
26.2818
7192
26.2804
7242
26.279
7192
26.2775
7201
26.2761
7210
26.2746
7220
26.2732
7255
26.2718
7033
26.2703
7199
26.2689
7208
26.2674
7203
26.266
7292
26.2646
7261
26.2631
7214
26.2617
7173
26.2602
7324
26.2588
7333
26.2574
7252
26.2559
7310
26.2545
7380
26.253
7320
26.2516
7296
26.2501
7208
26.2487
7210
26.2473
7309
26.2458
7186
26.2444
7169
26.2429
7341
26.2415
7317
26.2401
7327
26.2386
7310
26.2372
7375
26.2357
7299
26.2343
7348
26.2329
7235
26.2314
7278
26.23
7292
26.2285
7208
26.2271
7332
26.2257
7343
26.2242
7285
26.2228
7321
26.2231
7273
26.2249
7429
26.2266
7306
26.2283
7318
26.2301
7305
26.2318
7441
26.2336
7443
26.2353
7355
26.237
7383
26.2388
7396
26.2405
7420
26.2423
7434
26.244
7355
26.2458
7430
26.2475
7463
26.2492
7478
26.251
7481
26.2527
7426
26.2545
7442
26.2562
7389
26.2579
7406
26.2597
7455
26.2614
7485
26.2632
7438
26.2649
7430
26.2667
7342
26.2684
7517
26.2701
7435
26.2719
7458
26.2736
7466
26.2754
7475
26.2771
7555
26.2788
7479
26.2806
7401
26.2823
7442
26.2841
7574
26.2858
7465
26.2876
7366
26.2893
7367
26.291
7349
26.2928
7560
26.2945
7410
26.2963
7424
26.298
7444
26.2997
7469
26.3015
7451
26.3032
7358
26.305
7498
26.3067
7501
26.3085
7518
26.3102
7498
26.3119
7522
26.3137
7459
26.3154
7398
26.3172
7429
26.3189
7506
26.3206
7505
26.3224
7416
26.3241
7354
26.3259
7476
26.3276
7580
26.3294
7631
26.3311
7470
26.3328
7501
26.3346
7572
26.3363
7564
26.3381
7464
26.3398
7530
26.3415
7562
26.3433
7549
26.345
7533
26.3468
7449
26.3485
7602
26.3503
7528
26.352
7652
26.3537
7653
26.3555
7596
26.3572
7636
26.359
7774
26.3607
7976
26.3624
7880
26.3642
7926
26.3659
7928
26.3677
7787
26.3694
7721
26.3712
7614
26.3729
7607
26.3746
7513
26.3764
7659
26.3781
7693
26.3799
7584
26.3816
7636
26.3833
7668
26.3851
7554
26.3868
7575
26.3886
7592
26.3903
7468
26.3921
7533
26.3938
7470
26.3955
7568
26.3957
7480
26.3947
7551
26.3937
7613
26.3926
7549
26.3916
7626
26.3906
7629
26.3896
7638
26.3885
7650
26.3875
7706
26.3865
7750
26.3854
7635
26.3844
7713
26.3834
7728
26.3824
7633
26.3813
7641
26.3803
7688
26.3793
7665
26.3782
7739
26.3772
7684
26.3762
7885
26.3752
7645
26.3741
7704
26.3731
7808
26.3721
7731
26.3711
7850
26.37
7611
26.369
7817
26.368
7790
26.3669
7784
26.3659
7704
26.3649
7618
26.3639
7700
26.3628
7812
26.3618
7830
26.3608
7918
26.3597
7775
26.3587
7660
26.3577
7605
26.3567
7715
26.3556
7835
26.3546
7759
26.3536
7906
26.3525
7795
26.3515
7767
26.3505
7801
26.3495
7748
26.3484
7838
26.3474
7838
26.3464
7683
26.3454
7713
26.3443
7834
26.3433
7853
26.3423
7717
26.3412
7845
26.3402
7816
26.3392
7814
26.3382
7798
26.3371
7832
26.3361
7755
26.3351
7864
26.334
8039
26.333
7906
26.332
7868
26.331
7889
26.3299
7865
26.3289
7858
26.3279
7776
26.3268
7803
26.3258
7922
26.3248
7956
26.3238
7902
26.3227
7892
26.3217
7992
26.3207
7905
26.3196
7947
26.3186
7944
26.3176
8036
26.3166
8092
26.3155
8019
26.3145
7973
26.3135
7931
26.3125
7841
26.3114
7928
26.3104
7950
26.3094
7895
26.3083
7848
26.3073
7994
26.3063
7870
26.3053
7978
26.3042
8009
26.3032
7912
26.3022
8014
26.3011
7994
26.3001
7842
26.2991
8007
26.2981
7996
26.297
8005
26.296
8060
26.295
8078
26.2939
8077
26.2929
8105
26.2919
8149
26.2909
7925
26.2898
7875
26.2888
7999
26.2878
8099
26.2868
8046
26.2857
8092
26.2847
8026
26.2837
8033
26.2826
8122
26.2816
7991
26.2806
7926
26.2796
8089
26.2785
8070
26.2775
8008
26.2765
7968
26.2754
7955
26.2744
8013
26.2734
7960
26.2731
8050
26.2735
8046
26.2738
7984
26.2741
8059
26.2745
8108
26.2748
8161
26.2751
8040
26.2755
8048
26.2758
8109
26.2761
8170
26.2765
8097
26.2768
8224
26.2771
8252
26.2775
8066
26.2778
8071
26.2782
8045
26.2785
8118
26.2788
8105
26.2792
8191
26.2795
8259
26.2798
8139
26.2802
8090
26.2805
8058
26.2808
8186
26.2812
8180
26.2815
8089
26.2818
8136
26.2822
8152
26.2825
8297
26.2828
8310
26.2832
8210
26.2835
8243
26.2839
8185
26.2842
8240
26.2845
8262
26.2849
8166
26.2852
8398
26.2855
8355
26.2859
8210
26.2862
8338
26.2865
8347
26.2869
8341
26.2872
8167
26.2875
8225
26.2879
8316
26.2882
8376
26.2885
8275
26.2889
8248
26.2892
8175
26.2896
8243
26.2899
8209
26.2902
8298
26.2906
8309
26.2909
8352
26.2912
8341
26.2916
8287
26.2919
8288
26.2922
8314
26.2926
8266
26.2929
8413
26.2932
8541
26.2936
8293
26.2939
8329
26.2942
8265
26.2946
8328
26.2949
8376
26.2953
8364
26.2956
8303
26.2959
8196
26.2963
8278
26.2966
8341
26.2969
8327
26.2973
8410
26.2976
8384
26.2979
8436
26.2983
8367
26.2986
8433
26.2989
8294
26.2993
8365
26.2996
8413
26.3006
8398
26.3021
8404
26.3035
8326
26.305
8416
26.3065
8355
26.3079
8325
26.3094
8357
26.3109
8310
26.3124
8312
26.3138
8516
26.3153
8491
26.3168
8557
26.3183
8416
26.3197
8341
26.3212
8234
26.3227
8392
26.3241
8478
26.3256
8367
26.3271
8283
26.3286
8551
26.33
8428
26.3315
8428
26.333
8576
26.3345
8532
26.3359
8520
26.3374
8643
26.3389
8557
26.3403
8569
26.3418
8700
26.3433
8700
26.3448
8720
26.3462
8810
26.3477
9002
26.3492
8922
26.3506
8929
26.3521
8877
26.3536
8894
26.3551
8874
26.3565
8866
26.358
8840
26.3595
8983
26.361
8845
26.3624
8788
26.3639
8749
26.3654
8584
26.3668
8564
26.3683
8545
26.3698
8596
26.3713
8473
26.3727
8373
26.3742
8292
26.3757
8244
26.3772
8164
26.3786
8155
26.3801
7945
26.3816
7972
26.383
7891
26.3845
8041
26.386
7854
26.3875
7809
26.3889
7638
26.3904
7618
26.3919
7561
26.3933
7491
26.3948
7468
26.3963
7539
26.3978
7473
26.3992
7376
26.4007
7316
26.4022
7436
26.4037
7340
26.4051
7375
26.4066
7408
26.4081
7402
26.4095
7320
26.411
7504
26.4125
7648
26.414
7735
26.4154
7891
26.4169
7983
26.4184
8124
26.4199
8629
26.4213
9370
26.4228
10286
26.4243
12041
26.4257
14790
26.4272
17745
26.4287
20105
26.4302
20986
26.4316
19876
26.4331
17232
26.4346
14073
26.436
11191
26.4375
8957
26.439
7479
26.4405
6912
26.4419
6718
26.4434
6446
26.4449
6453
26.4464
6330
26.4478
6464
26.4493
6497
26.4508
6554
26.4522
6270
26.4537
6476
26.4552
6367
26.4567
6472
26.4581
6314
26.4596
6438
26.4611
6453
26.4626
6384
26.464
6320
26.4655
6355
26.467
6460
26.4684
6424
26.4699
6455
26.4714
6399
26.4729
6496
26.4743
6418
26.4758
6416
26.4753
6329
26.4734
6423
26.4714
6451
26.4694
6584
26.4674
6428
26.4654
6542
26.4635
6494
26.4615
6389
26.4595
6472
26.4575
6499
26.4556
6563
26.4536
6472
26.4516
6433
26.4496
6440
26.4476
6328
26.4457
6417
26.4437
6443
26.4417
6402
26.4397
6451
26.4377
6415
26.4358
6503
26.4338
6365
26.4318
6431
26.4298
6453
26.4278
6527
26.4259
6523
26.4239
6577
26.4219
6594
26.4199
6477
26.4179
6509
26.416
6534
26.414
6572
26.412
6556
26.41
6461
26.4081
6498
26.4061
6502
26.4041
6521
26.4021
6546
26.4001
6588
26.3982
6607
26.3962
6742
26.3942
6568
26.3922
6647
26.3902
6608
26.3883
6538
26.3863
6502
26.3843
6550
26.3823
6478
26.3803
6573
26.3784
6685
26.3764
6489
26.3744
6538
26.3724
6645
26.3704
6524
26.3685
6562
26.3665
6612
26.3645
6594
26.3625
6587
26.3606
6672
26.3586
6758
26.3566
6656
26.3546
6600
26.3526
6674
26.3507
6680
26.3487
6593
26.3467
6597
26.3447
6635
26.3427
6680
26.3408
6676
26.3388
6545
26.3368
6585
26.3348
6651
26.3328
6650
26.3309
6722
26.3289
6641
26.3269
6690
26.3249
6567
26.323
6637
26.321
6690
26.319
6755
26.3165
6666
26.3135
6748
26.3106
6604
26.3076
6716
26.3047
6679
26.3017
6852
26.2988
6700
26.2958
6644
26.2929
6697
26.2899
6751
26.2869
6741
26.284
6765
26.281
6705
26.2781
6698
26.2751
6737
26.2722
6726
26.2692
6617
26.2663
6851
26.2633
6744
26.2604
6818
26.2574
6851
26.2545
6841
26.2515
6851
26.2486
6850
26.2456
6728
26.2427
6837
26.2397
6797
26.2368
6954
26.2338
6769
26.2309
6621
26.2279
6778
26.225
6861
26.222
6809
26.2191
6862
26.2161
6760
26.2132
6789
26.2102
6854
26.2072
6877
26.2043
6797
26.2013
6842
26.1984
6871
26.1954
6709
26.1925
6799
26.1895
6859
26.1866
6832
26.1836
6883
26.1807
6806
26.1777
6815
26.1748
6901
26.1718
7013
26.1689
6835
26.1659
6841
26.163
6901
26.16
6755
26.1571
6892
26.1541
6900
26.1512
6904
26.1482
6984
26.1453
6978
26.1423
6937
26.1394
6970
26.1364
6932
26.1335
6984
26.1305
6972
26.1275
6977
26.1246
6927
26.1216
6870
26.1187
6937
26.1157
6959
26.1128
6924
26.1098
6992
26.1069
7006
26.1039
6950
26.101
7012
26.098
7109
26.0951
7103
26.0921
7017
26.0892
7065
26.0862
6974
26.0833
6852
26.0803
7024
26.0774
7116
26.0744
7050
26.0715
7054
26.0685
7087
26.0656
7042
26.0626
6997
26.0597
7128
26.0567
7205
26.0538
7041
26.0508
7015
26.0478
7045
26.0449
6987
26.0419
7239
26.039
7168
26.036
7025
26.0331
7040
26.0301
7026
26.0272
7010
26.0242
7111
26.0213
6986
26.0183
7014
26.0154
7038
26.0125
7171
26.0095
7043
26.0066
7052
26.0037
7068
26.0007
7146
25.9978
7151
25.9948
7097
25.9919
7065
25.989
7064
25.986
6956
25.9831
7187
25.9801
7147
25.9772
6967
25.9743
7087
25.9713
7249
25.9684
7110
25.9654
7042
25.9625
7097
25.9596
7134
25.9566
7069
25.9537
7100
25.9507
7149
25.9478
7195
25.9449
7109
25.9419
7149
25.939
7155
25.936
7216
25.9331
7119
25.9302
7129
25.9272
7159
25.9243
7097
25.9214
7182
25.9184
7204
25.9155
7206
25.9125
7313
25.9096
7273
25.9067
7192
25.9037
7200
25.9008
7234
25.8978
7312
25.8949
7277
25.892
7222
25.889
7280
25.8861
7313
25.8831
7521
25.8802
7609
25.8773
7736
25.8743
7843
25.8714
7751
25.8684
7690
25.8655
7650
25.8626
7580
25.8596
7559
25.8567
7531
25.8538
7332
25.8508
7208
25.8479
7210
25.8449
7177
25.842
7201
25.8391
7315
25.8361
7189
25.8332
7344
25.8302
7217
25.8273
7213
25.8244
7303
25.8214
7303
25.8185
7155
25.8155
7233
25.8126
7264
25.8097
7292
25.8067
7353
25.8038
7356
25.8008
7293
25.7979
7451
25.795
7432
25.792
7362
25.7891
7403
25.7909
7318
25.7963
7499
25.8018
7335
25.8073
7499
25.8128
7444
25.8183
7447
25.8237
7462
25.8292
7534
25.8347
7546
25.8402
7453
25.8457
7467
25.8511
7430
25.8566
7323
25.8621
7520
25.8676
7612
25.8731
7512
25.8785
7400
25.884
7427
25.8895
7505
25.895
7601
25.9004
7604
25.9059
7525
25.9114
7587
25.9169
7565
25.9224
7440
25.9278
7499
25.9333
7576
25.9388
7591
25.9443
7665
25.9498
7681
25.9552
7512
25.9607
7399
25.9662
7443
25.9717
7484
25.9772
7561
25.9826
7556
25.9881
7688
25.9936
7769
25.9991
7646
26.0046
7555
26.01
7685
26.0155
7614
26.021
7531
26.0265
7662
26.0319
7581
26.0374
7610
26.0429
7685
26.0484
7650
26.0539
7515
26.0593
7672
26.0648
7705
26.0703
7741
26.0758
7727
26.0813
7643
26.0867
7575
26.0922
7735
26.0977
7682
26.1032
7725
26.1087
7709
26.1141
7786
26.1196
7742
26.1251
7883
26.1306
7849
26.1361
7941
26.1415
7896
26.147
8015
26.1525
7863
26.158
8091
26.1635
8089
26.1689
8180
26.1744
8126
26.1799
8221
26.1854
8028
26.1908
8126
26.1963
8111
26.2018
8090
26.2073
8033
26.2128
8160
26.2182
8101
26.2237
8110
26.2292
8138
26.2347
8020
26.2402
8011
26.2456
8036
26.2511
8067
26.2566
8005
26.2621
8070
26.2676
8037
26.273
7983
26.2785
7960
26.284
8112
26.2895
8121
26.295
7986
26.3004
8059
26.3059
8114
26.3114
8127
26.3169
8038
26.3223
7989
26.3278
7918
26.3333
7944
26.3388
7868
26.3443
7852
26.3497
7840
26.3552
7876
26.3607
7858
26.3662
7853
26.3717
7822
26.3771
7835
26.3826
7769
26.3881
7768
26.3936
7785
26.3991
7745
26.4045
7720
26.41
7829
26.4155
7703
26.421
7730
26.4265
7789
26.4319
7785
26.4374
7719
26.4429
7813
26.4484
7894
26.4539
8073
26.4593
8004
26.4648
8012
26.4703
8110
26.4758
8069
26.4812
8178
26.4867
8326
26.4922
8456
26.4977
8400
26.5032
8528
26.5086
8469
26.5141
8680
26.5196
8688
26.5251
8747
26.5306
8721
26.536
8634
26.5415
8796
26.547
8850
26.5525
8765
26.558
8822
26.5634
9046
26.5689
9054
26.5744
9111
26.5799
9063
26.5854
9034
26.5908
9031
26.5963
9166
26.6018
9180
26.6073
9017
26.6127
9074
26.6182
8792
26.6237
8814
26.6292
8839
26.6347
8814
26.6401
8758
26.6456
8555
26.6511
8492
26.6566
8427
26.6621
8090
26.6675
7843
26.673
7525
26.6785
7064
26.684
6765
26.6895
6519
26.6949
6329
26.7004
6092
26.7059
5905
26.7114
5749
26.7169
5478
26.7223
5352
26.7278
5137
26.7333
4924
26.7388
4816
26.7443
4778
26.7497
4735
26.7552
4685
26.7607
4706
26.7662
4535
26.7716
4592
26.7768
4623
26.7816
4823
26.7864
5016
26.7913
5189
26.7961
5186
26.8009
5275
26.8058
5612
26.8106
5782
26.8154
6150
26.8203
6489
26.8251
7026
26.8299
7336
26.8348
7706
26.8396
8015
26.8444
8670
26.8493
9078
26.8541
9977
26.8589
11090
26.8638
12876
26.8686
15168
26.8734
18189
26.8783
23406
26.8831
34062
26.8879
45699
26.8928
46286
26.8976
35310
26.9024
20066
26.9073
8235
26.9121
3192
26.9169
1874
26.9218
1549
26.9266
1249
26.9314
1097
26.9363
1033
26.9411
906
26.9459
863
26.9507
811
26.9556
775
26.9604
755
26.9652
680
26.9701
662
26.9749
633
26.9797
670
26.9846
632
26.9894
623
26.9942
588
26.9991
648
27.0039
616
27.0087
614
27.0136
589
27.0184
598
27.0232
647
27.0281
655
27.0329
665
27.0377
658
27.0426
624
27.0474
621
27.0522
607
27.0571
647
27.0619
640
27.0667
569
27.0716
568
27.0764
590
27.0812
613
27.0861
616
27.0909
611
27.0957
620
27.1006
631
27.1054
639
27.1102
655
27.1151
620
27.1199
637
27.1247
613
27.1296
622
27.1344
625
27.1392
600
27.1441
620
27.1489
639
27.1537
627
27.1586
582
27.1634
646
27.1682
628
27.1731
630
27.1779
638
27.1827
619
27.1876
674
27.1924
599
27.1972
630
27.2021
608
27.2069
612
27.2117
591
27.2166
604
27.2214
599
27.2262
600
27.2311
594
27.2359
577
27.2407
604
27.2456
604
27.2504
567
27.2552
575
27.2579
577
27.2589
594
27.26
594
27.261
600
27.262
604
27.263
590
27.264
581
27.265
581
27.2661
560
27.2671
596
27.2681
603
27.2691
563
27.2701
540
27.2711
603
27.2722
597
27.2732
607
27.2742
573
27.2752
596
27.2762
625
27.2772
631
27.2783
580
27.2793
614
27.2803
608
27.2813
653
27.2823
759
27.2833
787
27.2844
839
27.2854
905
27.2864
958
27.2874
906
27.2884
900
27.2894
805
27.2905
686
27.2915
651
27.2925
626
27.2935
594
27.2945
601
27.2955
581
27.2966
589
27.2976
592
27.2986
587
27.2996
587
27.3006
565
27.3016
564
27.3027
580
27.3037
587
27.3047
549
27.3057
567
27.3067
551
27.3077
543
27.3088
537
27.3098
530
27.3108
498
27.3118
529
27.3128
550
27.3138
560
27.3149
567
27.3159
566
27.3169
548
27.3179
568
27.3189
549
27.3199
546
27.321
545
27.322
561
27.323
573
27.324
573
27.325
560
27.326
562
27.3271
579
27.3281
546
27.3291
520
27.3301
552
27.3311
529
27.3321
550
27.3332
585
27.3342
579
27.3352
553
27.3362
590
27.3372
561
27.3382
591
27.3393
559
27.3403
560
27.3413
535
27.3423
565
27.3433
579
27.3443
573
27.3454
552
27.3464
564
27.3474
565
27.3484
560
27.3494
568
27.3504
612
27.3515
582
27.3525
579
27.3535
596
27.3545
579
27.3555
544
27.3565
542
27.3576
581
27.3586
548
27.3596
578
27.3606
583
27.3616
580
27.3626
572
27.3637
629
27.3647
598
27.3657
558
27.3667
611
27.3677
648
27.3687
590
27.3698
605
27.3708
581
27.3718
585
27.3728
538
27.3738
545
27.3748
583
27.3759
597
27.3769
604
27.3779
585
27.3789
562
27.3785
523
27.3771
522
27.3756
523
27.3741
525
27.3726
526
27.3711
536
27.3696
566
27.3682
528
27.3667
549
27.3652
526
27.3637
499
27.3622
519
27.3608
547
27.3593
525
27.3578
543
27.3563
508
27.3548
507
27.3534
510
27.3519
506
27.3504
488
27.3489
519
27.3474
498
27.346
517
27.3445
525
27.343
535
27.3415
544
27.34
523
27.3386
487
27.3371
543
27.3356
553
27.3341
582
27.3326
630
27.3312
704
27.3297
877
27.3282
1014
27.3267
1134
27.3252
1174
27.3238
1083
27.3223
904
27.3208
702
27.3193
556
27.3178
544
27.3164
532
27.3149
487
27.3134
509
27.3119
532
27.3104
504
27.309
454
27.3075
464
27.306
457
27.3045
461
27.303
471
27.3016
512
27.3001
543
27.2986
566
27.2971
529
27.2956
531
27.2942
557
27.2927
533
27.2912
552
27.2897
568
27.2882
613
27.2867
625
27.2853
648
27.2838
632
27.2823
643
27.2808
577
27.2793
598
27.2779
558
27.2764
520
27.2749
500
27.2734
509
27.2719
480
27.2705
465
27.269
481
27.2675
483
27.266
482
27.2645
457
27.2631
476
27.2616
440
27.2601
461
27.2586
465
27.2571
487
27.2557
453
27.2542
460
27.2527
483
27.2512
479
27.2497
491
27.2483
473
27.2468
443
27.2453
461
27.2438
482
27.2423
462
27.2409
452
27.2394
453
27.2379
481
27.2364
447
27.2349
452
27.2335
474
27.232
469
27.2305
433
27.229
447
27.2275
486
27.2261
482
27.2246
462
27.2231
454
27.2216
443
27.2201
452
27.2187
509
27.2172
462
27.2157
471
27.2142
477
27.2197
438
27.2307
473
27.2417
491
27.2528
480
27.2638
461
27.2748
450
27.2858
462
27.2968
476
27.3078
450
27.3188
522
27.3298
474
27.3409
477
27.3519
487
27.3629
517
27.3739
512
27.3849
487
27.3959
477
27.4069
479
27.4179
499
27.4289
505
27.44
501
27.451
507
27.462
474
27.473
472
27.484
473
27.495
495
27.506
495
27.517
475
27.5281
495
27.5391
486
27.5501
479
27.5611
473
27.5721
465
27.5831
450
27.5941
447
27.6051
451
27.6161
460
27.6272
472
27.6382
449
27.6492
462
27.6602
457
27.6712
471
27.6822
472
27.6932
469
27.7042
458
27.7153
469
27.7263
498
27.7373
522
27.7483
506
27.7593
548
27.7703
577
27.7813
621
27.7923
670
27.8034
660
27.8144
638
27.8254
593
27.8364
591
27.8474
545
27.8584
538
27.8694
490
27.8804
481
27.8914
477
27.9025
474
27.9135
483
27.9245
465
27.9355
480
27.9465
456
27.9575
460
27.9685
462
27.9795
458
27.9906
471
28.0016
493
28.0126
467
28.0236
494
28.0346
498
28.0456
516
28.0566
514
28.0676
486
28.0786
526
28.0897
565
28.1007
548
28.1117
553
28.1227
589
28.1337
576
28.1447
491
28.1557
516
28.1667
507
28.1778
473
28.1888
467
28.1998
485
28.2108
469
28.2218
454
28.2328
483
28.2438
459
28.2548
478
28.2658
457
28.2769
477
28.2879
479
28.2989
485
28.3099
493
28.3209
475
28.3319
474
28.3429
441
28.3539
428
28.365
462
28.376
480
28.387
481
28.398
476
28.409
474
28.42
496
28.431
491
28.442
488
28.453
470
28.4641
463
28.4751
486
28.4861
472
28.4971
459
28.5081
505
28.5191
492
28.5301
483
28.5411
517
28.5522
448
28.5632
504
28.5742
497
28.5852
465
28.5962
482
28.6072
472
28.6182
479
28.6292
473
28.6402
493
28.6513
469
28.6623
505
28.6733
500
28.6843
459
28.6953
502
28.7063
476
28.7173
452
28.7283
483
28.7394
462
28.7504
484
28.7614
484
28.7724
449
28.7834
454
28.7944
503
28.8054
499
28.8164
485
28.8274
492
28.8385
474
28.8495
518
28.8605
538
28.8715
496
28.8825
526
28.8935
469
28.9045
475
28.9155
511
28.9266
508
28.9376
548
28.9486
587
28.9596
568
28.9706
575
28.9816
562
28.9926
563
29.0036
549
29.0146
551
29.0257
525
29.0367
562
29.0477
517
29.0587
536
29.0697
515
29.0807
537
29.0917
528
29.1027
547
29.1138
493
29.1248
549
29.1358
525
29.1468
479
29.1578
492
29.1688
467
29.1798
489
29.1908
515
29.2018
450
29.2129
484
29.2239
464
29.2349
458
29.2459
467
29.2569
472
29.2679
459
29.2789
459
29.2899
459
29.301
423
29.312
427
29.323
432
29.334
415
29.345
449
29.356
452
29.367
459
29.378
467
29.389
457
29.4001
467
29.4111
504
29.4221
509
29.4331
555
29.4441
541
29.4551
568
29.4661
619
29.4771
635
29.4882
686
29.4992
716
29.504
745
29.504
708
29.504
736
29.504
715
29.504
675
29.504
648
29.504
620
29.504
590
29.504
557
29.504
636
29.504
594
29.504
587
29.504
630
29.504
671
29.504
645
29.504
630
29.504
686
29.504
728
29.504
688
29.504
695
29.504
622
29.504
597
29.504
605
29.504
575
29.504
544
29.504
551
29.504
580
29.504
578
29.504
520
29.504
485
29.504
454
29.504
446
29.504
464
29.504
428
29.504
397
29.504
388
29.504
362
29.504
314
29.504
288
29.504
277
29.504
238
29.504
219
29.504
203
29.504
186
29.504
139
29.504
134
29.504
89
29.504
81
29.504
47
29.504
45
29.504
35
29.504
24
29.504
14
29.504
C 1s/18
Not Specified
2017
12
11
14
10
8
0
9
Casa Info Follows
1
Calib M = 284.186 A = 284.5 BE ADD
0
0
0
   XPS     Spectrum    Lens Mode:Hybrid   Resolution:Pass energy 20    Iris(Aper):slot(Slot)
   Acqn. Time(s): 261        Sweeps: 4        Anode:Mono(Al (Mono))(150 W)   Step(meV): 100.0 
   Dwell Time(ms): 250        Charge Neutraliser :On   Acquired On :17/12/11 14:10:08
XPS
14
1
0
Mono(Al (Mono))
1486.69
150
1e+037
1e+037
6000
6000
1e+037
1e+037
FAT
20
1e+037
-4.803
0
1e+037
1e+037
1e+037
1e+037
C
1s
-1
Kinetic Energy
eV
1186.69
0.1
2
Intensity
d
Transmission
d
pulse counting
0.25
4
0
1e+037
1e+037
1e+037
0
522
139
25341
1.1574
1.16426
1137
1.16426
1083
1.16422
1091
1.16418
1103
1.16414
1092
1.1641
1051
1.16406
1094
1.16402
1132
1.16398
1076
1.16393
1044
1.16389
1077
1.16385
1061
1.16381
1086
1.16377
1077
1.16373
1061
1.16369
1050
1.16365
1040
1.16361
1022
1.16357
1068
1.16352
1031
1.16348
1044
1.16344
1047
1.1634
970
1.16336
1041
1.16332
1039
1.16328
1000
1.16324
1042
1.1632
1042
1.16315
1001
1.16311
986
1.16307
982
1.16303
998
1.16299
1018
1.16295
1069
1.16292
1001
1.1629
1003
1.16287
1076
1.16285
1017
1.16282
990
1.1628
1048
1.16278
1039
1.16275
1099
1.16273
1022
1.1627
1052
1.16268
1043
1.16265
1022
1.16263
1038
1.16261
1048
1.16258
1083
1.16256
1021
1.16253
1080
1.16251
1081
1.16248
1080
1.16246
1082
1.16244
1091
1.16241
1116
1.16239
1162
1.16236
1141
1.16234
1135
1.16231
1137
1.16229
1191
1.16226
1113
1.16224
1131
1.16222
1166
1.16219
1205
1.16217
1158
1.16214
1205
1.16212
1219
1.16209
1177
1.16207
1231
1.16205
1264
1.16202
1231
1.162
1217
1.16197
1225
1.16195
1257
1.16192
1236
1.1619
1311
1.16188
1244
1.16185
1282
1.16183
1349
1.1618
1372
1.16178
1385
1.16175
1336
1.16173
1374
1.16171
1462
1.16168
1459
1.16166
1492
1.16163
1511
1.16161
1480
1.16158
1558
1.16156
1531
1.16153
1563
1.16151
1554
1.16149
1623
1.16146
1604
1.16144
1555
1.16141
1576
1.16139
1536
1.16136
1568
1.16134
1638
1.16132
1604
1.16129
1605
1.16127
1632
1.16124
1624
1.16122
1584
1.16119
1621
1.16117
1658
1.16115
1746
1.16112
1742
1.1611
1770
1.16107
1698
1.16105
1732
1.16102
1839
1.161
1804
1.16097
1881
1.16095
1949
1.16093
1878
1.1609
1985
1.16088
1904
1.16085
1980
1.16083
2003
1.1608
1950
1.16078
1934
1.16076
1972
1.16073
2079
1.16071
2046
1.16068
2203
1.16066
2300
1.16063
2420
1.16061
2568
1.16059
2706
1.16056
2819
1.16054
3081
1.16051
3251
1.16049
3388
1.16046
3470
1.16044
3516
1.16042
3652
1.16039
3651
1.16037
3639
1.16034
3654
1.16032
3628
1.16029
3748
1.16027
3694
1.16024
3849
1.16022
4020
1.1602
4237
1.16017
4523
1.16015
4750
1.16012
5260
1.1601
5912
1.16007
6833
1.16005
8010
1.16003
9802
1.16
12196
1.15998
15325
1.15995
19395
1.15993
23329
1.1599
25341
1.15988
24564
1.15986
21153
1.15983
16410
1.15981
12365
1.15978
8877
1.15976
6143
1.15973
3997
1.15971
2589
1.15969
1782
1.15966
1226
1.15964
927
1.15961
753
1.15959
615
1.15956
501
1.15954
444
1.15951
386
1.15949
374
1.15947
358
1.15944
320
1.15942
287
1.15939
278
1.15937
257
1.15934
264
1.15932
283
1.1593
268
1.15927
244
1.15925
260
1.15922
243
1.1592
230
1.15917
234
1.15915
209
1.15913
243
1.1591
209
1.15908
221
1.15905
198
1.15903
193
1.159
197
1.15898
189
1.15895
173
1.15893
196
1.15891
214
1.15888
203
1.15886
193
1.15883
166
1.15881
192
1.15878
194
1.15876
178
1.15874
187
1.15871
174
1.15869
196
1.15866
187
1.15864
190
1.15861
181
1.15859
189
1.15857
191
1.15854
166
1.15852
177
1.15849
151
1.15847
193
1.15844
199
1.15842
172
1.1584
172
1.15837
173
1.15835
175
1.15832
173
1.1583
181
1.15827
164
1.15825
180
1.15822
179
1.1582
179
1.15818
164
1.15815
181
1.15813
199
1.1581
139
1.15808
176
1.15805
175
1.15803
164
1.15801
157
1.15798
169
1.15796
167
1.15793
166
1.15791
194
1.15788
177
1.15786
157
1.15784
169
1.15781
167
1.15779
181
1.15776
158
1.15774
177
1.15771
173
1.15769
183
1.15767
152
1.15764
156
1.15762
179
1.15759
177
1.15757
169
1.15754
170
1.15752
151
1.15749
175
1.15747
173
1.15745
179
1.15742
158
1.1574
N 1s/19
Not Specified
2017
12
11
14
10
8
0
9
Casa Info Follows
1
Calib M = 284.186 A = 284.5 BE ADD
0
0
0
   XPS     Spectrum    Lens Mode:Hybrid   Resolution:Pass energy 20    Iris(Aper):slot(Slot)
   Acqn. Time(s): 241        Sweeps: 4        Anode:Mono(Al (Mono))(150 W)   Step(meV): 100.0 
   Dwell Time(ms): 298        Charge Neutraliser :On   Acquired On :17/12/11 14:10:08
XPS
14
1
0
Mono(Al (Mono))
1486.69
150
1e+037
1e+037
6000
6000
1e+037
1e+037
FAT
20
1e+037
-4.803
0
1e+037
1e+037
1e+037
1e+037
N
1s
-1
Kinetic Energy
eV
1076.69
0.1
2
Intensity
d
Transmission
d
pulse counting
0.2985
4
0
1e+037
1e+037
1e+037
0
404
1989
2324
1.20216
1.21679
2134
1.21679
2031
1.21671
2008
1.21664
2049
1.21657
2057
1.2165
2052
1.21642
2068
1.21635
2050
1.21628
2078
1.21621
2054
1.21613
2077
1.21606
2086
1.21599
2073
1.21591
2029
1.21584
2048
1.21577
2050
1.2157
2019
1.21562
2049
1.21555
2041
1.21548
2045
1.2154
2089
1.21533
2029
1.21526
2081
1.21519
2090
1.21511
2089
1.21504
2072
1.21497
2081
1.2149
2139
1.21482
2121
1.21475
1998
1.21468
2035
1.2146
2055
1.21453
2173
1.21446
2173
1.21439
2082
1.21431
2072
1.21424
2051
1.21417
1989
1.2141
2072
1.21402
2100
1.21395
2158
1.21388
2083
1.2138
2045
1.21373
2046
1.21366
2031
1.21359
2133
1.21351
2135
1.21344
2072
1.21337
2069
1.21329
2075
1.21322
2090
1.21315
2075
1.21308
2124
1.213
2073
1.21293
2100
1.21286
2133
1.21279
2110
1.21271
2079
1.21264
2065
1.21257
2092
1.21249
2087
1.21242
2057
1.21235
2049
1.21228
2116
1.2122
2082
1.21213
2034
1.21206
2090
1.21198
2087
1.21191
2113
1.21184
2069
1.21177
2095
1.21169
2062
1.21162
2045
1.21155
2097
1.21148
2104
1.2114
2139
1.21133
2137
1.21126
2169
1.21118
2140
1.21111
2140
1.21104
2152
1.21097
2172
1.21089
2237
1.21082
2198
1.21075
2266
1.21068
2324
1.2106
2270
1.21053
2287
1.21046
2221
1.21038
2292
1.21031
2255
1.21024
2234
1.21017
2295
1.21009
2231
1.21002
2212
1.20995
2288
1.20987
2210
1.2098
2230
1.20973
2247
1.20966
2222
1.20958
2158
1.20951
2133
1.20944
2192
1.20937
2140
1.20929
2189
1.20922
2207
1.20915
2186
1.20907
2143
1.209
2181
1.20893
2154
1.20886
2191
1.20878
2134
1.20871
2195
1.20864
2200
1.20856
2174
1.20849
2141
1.20842
2117
1.20835
2148
1.20827
2133
1.2082
2055
1.20813
2063
1.20806
2145
1.20798
2057
1.20791
2035
1.20784
2001
1.20776
2088
1.20769
2097
1.20762
2076
1.20755
2095
1.20747
2107
1.2074
2016
1.20733
2019
1.20726
2088
1.20718
2106
1.20711
2071
1.20704
2084
1.20696
2057
1.20689
2119
1.20682
2115
1.20675
2056
1.20667
2115
1.2066
2074
1.20653
2029
1.20645
2072
1.20638
2036
1.20631
2072
1.20624
2038
1.20616
2073
1.20609
2058
1.20602
2133
1.20595
2137
1.20587
2046
1.2058
2053
1.20573
2091
1.20565
2040
1.20558
2031
1.20551
2069
1.20544
2074
1.20536
2066
1.20529
2047
1.20522
2078
1.20514
2027
1.20507
2052
1.205
2098
1.20493
2081
1.20485
2012
1.20478
2125
1.20471
2057
1.20464
2045
1.20456
2080
1.20449
2074
1.20442
2121
1.20434
2114
1.20427
2113
1.2042
2139
1.20413
2050
1.20405
2067
1.20398
2071
1.20391
2085
1.20384
2095
1.20376
2093
1.20369
2134
1.20362
2097
1.20354
2065
1.20347
2072
1.2034
2104
1.20333
2071
1.20325
2090
1.20318
2068
1.20311
2107
1.20303
2141
1.20296
2071
1.20289
2101
1.20282
2111
1.20274
2062
1.20267
2081
1.2026
2101
1.20253
2058
1.20245
2124
1.20238
2057
1.20231
2118
1.20223
2214
1.20216
end of experiment
