VAMAS Surface Chemical Analysis Standard Data Transfer Format 1988 May 4
Not Specified
Kratos Axis
Not Specified
/C=/data/Monica/Gruppe105/Emil/170921/GrNH2.dset
0
MAP
REGULAR
1
2
32768
32768
1
Etch Time
s
0
0
0
0
2
Survey/2
Not Specified
2017
9
21
19
58
30
0
3
   XPS     Spectrum    Lens Mode:Hybrid   Resolution:Pass energy 160   Iris(Aper):slot(Slot)
   Acqn. Time(s): 540        Sweeps: 2        Anode:Mono(Al (Mono))(150 W)   Step(meV): 500.0 
   Dwell Time(ms): 100        Charge Neutraliser :On   Acquired On :17/09/21 19:58:30
XPS
96.316
2.754
0
Mono(Al (Mono))
1486.69
150
1E+37
1E+37
6000
6000
1E+37
1E+37
FAT
160
1E+37
-4.803
0
1E+37
1E+37
1E+37
1E+37
Wide
None
-1
Kinetic Energy
eV
136.69
0.5
2
Intensity
d
Transmission
d
pulse counting
0.1
2
0
1E+37
1E+37
1E+37
0
5402
33
44981
25.7891
29.504
10238
27.0049
10052
27.0049
10249
27.0049
10146
27.0049
10075
27.0049
10237
27.0049
10151
27.0049
10045
27.0049
10160
27.0049
10260
27.0049
10202
27.0049
10040
27.0049
10055
27.0049
10072
27.0049
9949
27.0049
9978
27.0049
10117
27.0049
10126
27.0049
10150
27.0049
10219
27.0049
10192
27.0049
10147
27.0049
10054
27.0049
10056
27.0049
10045
27.0049
10181
27.0049
10190
27.0049
10193
27.0049
10124
27.0049
10173
27.0049
10239
27.0049
10080
27.0049
10136
27.0049
10150
27.0049
10141
27.0049
10245
27.0049
10174
27.0049
10284
27.0049
10029
27.0049
10225
27.0049
10151
27.0049
10222
27.0049
10185
27.0049
10245
27.0049
10080
27.0049
10142
27.0049
10055
27.0049
10116
27.0049
10212
27.0049
10197
27.0049
10045
27.0049
10244
27.0049
10252
27.0049
10187
27.0049
10154
27.0049
10077
27.0049
9930
27.0049
10170
27.0049
10240
27.0049
10383
27.0049
10289
27.0049
10267
27.0049
10243
27.0049
10349
27.0049
10093
27.0049
10297
27.0049
10192
27.0049
10099
27.0049
10208
27.0049
10099
27.0049
10156
27.0049
10219
27.0049
10204
27.0049
10142
27.0049
10165
27.0049
10147
27.0049
10265
27.0049
10228
27.0049
10193
27.0049
10254
27.0049
10329
27.0049
10285
27.0049
10382
27.0049
10365
27.0049
10327
27.0049
10412
27.0049
10359
27.0049
10573
27.0049
10555
27.0049
10635
27.0049
10827
27.0049
10940
27.0049
10834
27.0049
10774
27.0049
10644
27.0049
10589
27.0049
10586
27.0049
10785
27.0049
10675
27.0049
10578
27.0049
10671
27.0049
10488
27.0049
10633
27.0049
10577
27.0049
10472
27.0049
10600
27.0049
10571
27.0049
10702
27.0049
10479
27.0049
10590
27.0049
10703
27.0049
10715
27.0049
10696
27.0049
10671
27.0049
10660
27.0049
10671
27.0049
10651
27.0049
10712
27.0049
10740
27.0049
10708
27.0049
10851
27.0049
10742
27.0049
10639
27.0049
10917
27.0049
10718
27.0049
10730
27.0049
10862
27.0049
10974
27.0049
10957
27.0049
10879
27.0049
10885
27.0049
10795
27.0049
10932
27.0049
10963
27.0049
10952
27.0049
11008
27.0049
10821
27.0049
10750
27.0049
11070
27.0049
10940
27.0049
10871
27.0049
10923
27.0049
11053
27.0049
11071
27.0049
11124
27.0049
11055
27.0049
10938
27.0049
10959
27.005
11010
27.005
11193
27.0051
11216
27.0051
10967
27.0052
11101
27.0052
11043
27.0053
11122
27.0054
11131
27.0054
11155
27.0055
11314
27.0055
11314
27.0056
11248
27.0056
11242
27.0057
11320
27.0057
11311
27.0058
11226
27.0059
11322
27.0059
11203
27.006
11397
27.006
11455
27.0061
11496
27.0061
11426
27.0062
11548
27.0063
11628
27.0063
11524
27.0064
11422
27.0064
11412
27.0065
11579
27.0065
11585
27.0066
11679
27.0067
11534
27.0067
11505
27.0068
11627
27.0068
11704
27.0069
11547
27.0069
11780
27.007
11708
27.007
11675
27.0071
11616
27.0072
11641
27.0072
11633
27.0073
11654
27.0073
11832
27.0074
11710
27.0074
11805
27.0075
11893
27.0076
11893
27.0076
11708
27.0077
11981
27.0077
12143
27.0078
12050
27.0078
11986
27.0079
12008
27.008
12197
27.008
12078
27.0081
12110
27.0081
12312
27.0082
12361
27.0082
12282
27.0083
12447
27.0083
12338
27.0084
12318
27.0085
12398
27.0085
12475
27.0086
12400
27.0086
12379
27.0087
12512
27.0087
12471
27.0088
12304
27.0089
12379
27.0089
12442
27.009
12412
27.009
12486
27.0091
12476
27.0091
12409
27.0092
12403
27.0093
12586
27.0093
12371
27.0094
12419
27.0094
12431
27.0095
12353
27.0095
12513
27.0096
12529
27.0096
12660
27.0097
12625
27.0098
12970
27.0098
12942
27.0099
12824
27.0099
13031
27.01
13246
27.01
13365
27.0101
13288
27.0102
13420
27.0102
13477
27.0103
13673
27.0103
13722
27.0104
13751
27.0104
13671
27.0105
13648
27.0105
13646
27.0115
13751
27.0131
13753
27.0148
13815
27.0164
13754
27.018
13619
27.0197
13648
27.0213
13806
27.0229
13596
27.0246
13557
27.0262
13476
27.0278
13252
27.0295
13224
27.0311
12886
27.0327
12967
27.0344
12912
27.036
12705
27.0377
12516
27.0393
12342
27.0409
12034
27.0426
11908
27.0442
11888
27.0458
11712
27.0475
11595
27.0491
11312
27.0507
11015
27.0524
10774
27.054
10466
27.0556
10290
27.0573
10252
27.0589
10065
27.0605
9885
27.0622
9723
27.0638
9564
27.0655
9484
27.0671
9242
27.0687
9075
27.0704
9078
27.072
8905
27.0736
8782
27.0753
8815
27.0769
8621
27.0785
8619
27.0802
8444
27.0818
8503
27.0834
8378
27.0851
8371
27.0867
8401
27.0883
8380
27.09
8207
27.0916
8339
27.0933
8205
27.0949
8219
27.0965
8239
27.0982
8446
27.0998
8300
27.1014
8101
27.1031
8126
27.1047
8255
27.1063
8305
27.108
8448
27.1096
8381
27.1112
8367
27.1129
8260
27.1145
8418
27.1161
8390
27.1178
8320
27.1194
8447
27.1211
8296
27.1227
8316
27.1243
8270
27.126
8408
27.1276
8377
27.1292
8250
27.1309
8567
27.1325
8438
27.1341
8325
27.1358
8290
27.1374
8345
27.139
8142
27.1407
8236
27.1423
8383
27.1439
8410
27.1456
8365
27.1472
8302
27.1489
8315
27.1505
8498
27.1521
8434
27.1538
8416
27.1554
8458
27.157
8369
27.1587
8453
27.1603
8441
27.1619
8383
27.1636
8640
27.1652
8542
27.1668
8560
27.1685
8547
27.1701
8574
27.1717
8716
27.1734
8587
27.1731
8581
27.1714
8461
27.1697
8604
27.168
8537
27.1663
8526
27.1646
8658
27.1629
8663
27.1612
8526
27.1595
8602
27.1578
8638
27.1561
8598
27.1544
8486
27.1527
8554
27.151
8485
27.1493
8498
27.1476
8566
27.1459
8574
27.1442
8613
27.1425
8697
27.1407
8718
27.139
8596
27.1373
8833
27.1356
8818
27.1339
8637
27.1322
8745
27.1305
8674
27.1288
8622
27.1271
8759
27.1254
8761
27.1237
8739
27.122
8838
27.1203
8848
27.1186
8644
27.1169
8671
27.1152
8614
27.1135
8652
27.1118
8924
27.11
8910
27.1083
8755
27.1066
8798
27.1049
8823
27.1032
8806
27.1015
8804
27.0998
8812
27.0981
8846
27.0964
8899
27.0947
8848
27.093
8966
27.0913
8831
27.0896
8780
27.0879
8925
27.0862
8956
27.0845
8932
27.0828
8980
27.0811
9067
27.0793
8923
27.0776
8994
27.0759
8929
27.0742
8873
27.0725
8974
27.0708
8951
27.0691
8998
27.0674
8895
27.0657
8940
27.064
8981
27.0623
8838
27.0606
9011
27.0589
9205
27.0572
9164
27.0555
9101
27.0538
9034
27.0521
9077
27.0504
9060
27.0487
9067
27.0469
9092
27.0452
9029
27.0435
9008
27.0418
8946
27.0401
9137
27.0384
9158
27.0367
9163
27.035
9250
27.0333
9089
27.0316
9099
27.0299
9132
27.0282
9132
27.0265
9157
27.0248
9224
27.0231
9326
27.0214
9287
27.0197
9371
27.018
9149
27.0162
9243
27.0145
9286
27.0128
9316
27.0111
9344
27.0094
9402
27.0077
9287
27.006
9302
27.0043
9361
27.0023
9238
26.9999
9306
26.9976
9273
26.9953
9177
26.993
9346
26.9907
9283
26.9884
9258
26.9861
9255
26.9837
9369
26.9814
9439
26.9791
9541
26.9768
9405
26.9745
9314
26.9722
9380
26.9699
9385
26.9675
9386
26.9652
9397
26.9629
9404
26.9606
9377
26.9583
9528
26.956
9377
26.9536
9487
26.9513
9635
26.949
9530
26.9467
9489
26.9444
9399
26.9421
9458
26.9398
9358
26.9374
9511
26.9351
9559
26.9328
9599
26.9305
9513
26.9282
9544
26.9259
9543
26.9235
9556
26.9212
9718
26.9189
9519
26.9166
9610
26.9143
9660
26.912
9755
26.9097
9701
26.9073
9760
26.905
9777
26.9027
9675
26.9004
9451
26.8981
9662
26.8958
9536
26.8935
9606
26.8911
9748
26.8888
9528
26.8865
9577
26.8842
9695
26.8819
9658
26.8796
9668
26.8772
9802
26.8749
9894
26.8726
9786
26.8703
9620
26.868
9609
26.8657
9582
26.8634
9767
26.861
9926
26.8587
9635
26.8564
9739
26.8541
9664
26.8518
9745
26.8495
9664
26.8471
9674
26.8448
9784
26.8425
9812
26.8402
9739
26.8379
9735
26.8356
9858
26.8333
9842
26.8309
9778
26.8286
9713
26.8263
9734
26.824
9928
26.8217
9859
26.8194
9673
26.8171
9764
26.8147
9713
26.8124
9813
26.8101
9931
26.8078
10008
26.8055
9837
26.8032
9961
26.8008
9875
26.7985
9916
26.7962
9937
26.7939
10088
26.7916
10063
26.7893
9927
26.787
9957
26.7846
9900
26.7823
10066
26.78
10091
26.7777
9981
26.7754
9991
26.7731
10111
26.7707
10092
26.7682
9975
26.7657
10049
26.7633
10137
26.7608
10099
26.7584
10085
26.7559
10083
26.7534
10223
26.751
10113
26.7485
10171
26.7461
10189
26.7436
10303
26.7411
10179
26.7387
10157
26.7362
10170
26.7337
10191
26.7313
10082
26.7288
10124
26.7264
10272
26.7239
10258
26.7214
10220
26.719
10189
26.7165
10295
26.7141
10116
26.7116
10354
26.7091
10405
26.7067
10281
26.7042
10380
26.7018
10387
26.6993
10319
26.6968
10326
26.6944
10435
26.6919
10374
26.6894
10361
26.687
10477
26.6845
10517
26.6821
10652
26.6796
10611
26.6771
10382
26.6747
10335
26.6722
10493
26.6698
10565
26.6673
10516
26.6648
10475
26.6624
10540
26.6599
10558
26.6574
10388
26.655
10563
26.6525
10611
26.6501
10545
26.6476
10468
26.6451
10454
26.6427
10448
26.6402
10544
26.6378
10513
26.6353
10547
26.6328
10618
26.6304
10535
26.6279
10538
26.6255
10648
26.623
10668
26.6205
10610
26.6181
10800
26.6156
10694
26.6131
10879
26.6107
10853
26.6082
10727
26.6058
10693
26.6033
10816
26.6008
10691
26.5984
10650
26.5959
10754
26.5935
10721
26.591
10816
26.5885
10860
26.5861
10921
26.5836
10830
26.5812
10800
26.5787
10828
26.5762
10942
26.5738
10868
26.5713
10788
26.5688
10847
26.5664
10741
26.5639
10682
26.5615
10890
26.559
10848
26.5565
11005
26.5541
11087
26.5516
10889
26.5492
10949
26.5467
10934
26.5442
10997
26.5418
10939
26.5393
11014
26.5368
11093
26.5344
11121
26.5319
11036
26.5295
11020
26.527
11062
26.5256
11078
26.5249
11060
26.5243
11149
26.5236
11254
26.523
11303
26.5223
11248
26.5217
11439
26.521
11342
26.5204
11393
26.5198
11390
26.5191
11285
26.5185
11367
26.5178
11191
26.5172
11410
26.5165
11485
26.5159
11416
26.5153
11469
26.5146
11435
26.514
11380
26.5133
11495
26.5127
11447
26.512
11344
26.5114
11422
26.5107
11532
26.5101
11457
26.5095
11384
26.5088
11432
26.5082
11222
26.5075
11397
26.5069
11337
26.5062
11606
26.5056
11504
26.5049
11467
26.5043
11374
26.5037
11452
26.503
11463
26.5024
11584
26.5017
11718
26.5011
11644
26.5004
11620
26.4998
11900
26.4992
11946
26.4985
12051
26.4979
11832
26.4972
11992
26.4966
12285
26.4959
12170
26.4953
12384
26.4946
12267
26.494
12455
26.4934
12483
26.4927
12558
26.4921
12461
26.4914
12416
26.4908
12478
26.4901
12341
26.4895
12345
26.4888
12254
26.4882
12268
26.4876
12023
26.4869
12084
26.4863
12163
26.4856
12062
26.485
11816
26.4843
11668
26.4837
11876
26.483
11661
26.4824
11651
26.4818
11722
26.4811
11546
26.4805
11428
26.4798
11388
26.4792
11287
26.4785
11258
26.4779
11264
26.4773
11130
26.4766
11268
26.476
11231
26.4753
11122
26.4747
11283
26.474
11186
26.4734
11293
26.4727
11388
26.4721
11448
26.4715
11468
26.4708
11717
26.4702
11764
26.4695
11871
26.4689
11986
26.4682
12433
26.4676
12529
26.4669
12501
26.4663
12844
26.4657
13283
26.465
13395
26.4644
13324
26.4637
13379
26.4631
13694
26.4624
13821
26.4618
13563
26.461
13602
26.4601
13417
26.4592
13352
26.4583
13101
26.4574
13053
26.4565
12913
26.4556
12529
26.4547
12573
26.4539
12272
26.453
12029
26.4521
11784
26.4512
11495
26.4503
11384
26.4494
11202
26.4485
10697
26.4476
10408
26.4467
10167
26.4458
9946
26.4449
9805
26.444
9252
26.4431
9096
26.4422
8875
26.4413
8735
26.4404
8629
26.4395
8376
26.4387
8345
26.4378
8284
26.4369
8419
26.436
8450
26.4351
8166
26.4342
8054
26.4333
8123
26.4324
8102
26.4315
8174
26.4306
8053
26.4297
8150
26.4288
8186
26.4279
8244
26.427
8178
26.4261
8118
26.4252
7966
26.4243
8052
26.4234
8079
26.4226
8089
26.4217
8131
26.4208
8037
26.4199
8061
26.419
8076
26.4181
8149
26.4172
8133
26.4163
8108
26.4154
7912
26.4145
8001
26.4136
8034
26.4127
8084
26.4118
8154
26.4109
8025
26.41
8142
26.4091
8110
26.4082
8120
26.4074
8129
26.4065
8197
26.4056
8123
26.4047
8084
26.4038
8139
26.4029
8057
26.402
8194
26.4011
8122
26.4002
8014
26.3993
8087
26.3984
8196
26.3975
8181
26.3966
7947
26.3957
7975
26.3948
8344
26.3939
8236
26.393
8299
26.3921
8319
26.3913
8129
26.3904
8228
26.3895
8217
26.3886
8159
26.3877
8231
26.3868
8114
26.3859
8289
26.385
8230
26.3841
8203
26.3832
8130
26.3823
8381
26.3814
8316
26.3805
8237
26.3796
8395
26.3787
8214
26.3778
8210
26.3769
8315
26.376
8283
26.3752
8234
26.3743
8284
26.3734
8301
26.3725
8185
26.3723
8232
26.3727
8177
26.3731
8261
26.3735
8183
26.3738
8352
26.3742
8197
26.3746
8334
26.375
8304
26.3754
8384
26.3758
8459
26.3762
8237
26.3766
8418
26.3769
8505
26.3773
8522
26.3777
8430
26.3781
8499
26.3785
8440
26.3789
8289
26.3793
8277
26.3797
8445
26.38
8460
26.3804
8417
26.3808
8375
26.3812
8409
26.3816
8498
26.382
8445
26.3824
8447
26.3828
8420
26.3831
8423
26.3835
8423
26.3839
8471
26.3843
8492
26.3847
8416
26.3851
8518
26.3855
8435
26.3859
8515
26.3862
8466
26.3866
8300
26.387
8503
26.3874
8583
26.3878
8239
26.3882
8500
26.3886
8395
26.389
8486
26.3893
8578
26.3897
8572
26.3901
8639
26.3905
8480
26.3909
8562
26.3913
8595
26.3917
8529
26.3921
8521
26.3924
8524
26.3928
8505
26.3932
8403
26.3936
8458
26.394
8526
26.3944
8494
26.3948
8519
26.3952
8614
26.3955
8579
26.3959
8585
26.3963
8684
26.3967
8546
26.3971
8560
26.3975
8591
26.3979
8684
26.3983
8660
26.3986
8497
26.399
8607
26.3994
8596
26.3998
8564
26.4002
8668
26.4006
8675
26.401
8690
26.4014
8565
26.4017
8615
26.4021
8743
26.4025
8583
26.4029
8594
26.4033
8688
26.4037
8816
26.4041
8714
26.4045
8671
26.4048
8707
26.4052
8557
26.4056
8689
26.406
8692
26.4064
8800
26.4068
8717
26.4072
8714
26.4076
8660
26.4079
8774
26.4083
8867
26.4087
8868
26.4091
8877
26.4095
8869
26.4099
8837
26.4103
8742
26.4107
8798
26.4113
8734
26.4123
8823
26.4132
8774
26.4141
8816
26.4151
8836
26.416
8772
26.4169
8748
26.4179
8840
26.4188
8756
26.4197
8862
26.4207
8667
26.4216
8804
26.4225
8766
26.4234
8795
26.4244
8734
26.4253
8783
26.4262
8729
26.4272
8787
26.4281
8890
26.429
8919
26.43
8848
26.4309
8878
26.4318
9042
26.4328
8869
26.4337
8905
26.4346
8859
26.4356
9054
26.4365
8841
26.4374
8883
26.4383
8808
26.4393
8934
26.4402
8958
26.4411
9009
26.4421
8884
26.443
8977
26.4439
8998
26.4449
8903
26.4458
9000
26.4467
8950
26.4477
8864
26.4486
9125
26.4495
8984
26.4505
8940
26.4514
9030
26.4523
9092
26.4532
9038
26.4542
8962
26.4551
8931
26.456
8966
26.457
9058
26.4579
9041
26.4588
8849
26.4598
8918
26.4607
8988
26.4616
9026
26.4626
8926
26.4635
8935
26.4644
9087
26.4654
9023
26.4663
9052
26.4672
8948
26.4681
9105
26.4691
8971
26.47
8952
26.4709
9132
26.4719
9079
26.4728
9123
26.4737
9098
26.4747
9008
26.4756
9074
26.4765
9170
26.4775
9111
26.4784
9241
26.4793
9234
26.4803
9086
26.4812
9189
26.4821
9180
26.483
9119
26.484
9056
26.4849
9087
26.4858
9160
26.4868
9167
26.4877
9214
26.4886
9120
26.4896
9165
26.4905
9056
26.4914
9189
26.4924
9224
26.4933
9206
26.4942
9188
26.4952
9125
26.4961
9129
26.497
9134
26.4979
9020
26.4989
9172
26.4998
9078
26.5007
8994
26.5017
9211
26.5026
9195
26.5035
9228
26.5032
9026
26.5018
9195
26.5005
9329
26.4991
9187
26.4977
9307
26.4964
9243
26.495
9142
26.4937
9310
26.4923
9163
26.4909
9319
26.4896
9298
26.4882
9318
26.4868
9290
26.4855
9253
26.4841
9242
26.4828
9253
26.4814
9201
26.48
9222
26.4787
9237
26.4773
9311
26.476
9397
26.4746
9332
26.4732
9363
26.4719
9319
26.4705
9378
26.4691
9348
26.4678
9399
26.4664
9280
26.4651
9351
26.4637
9272
26.4623
9398
26.461
9536
26.4596
9433
26.4583
9483
26.4569
9530
26.4555
9378
26.4542
9580
26.4528
9504
26.4515
9470
26.4501
9422
26.4487
9468
26.4474
9503
26.446
9436
26.4446
9291
26.4433
9408
26.4419
9418
26.4406
9594
26.4392
9494
26.4378
9511
26.4365
9448
26.4351
9524
26.4338
9566
26.4324
9469
26.431
9371
26.4297
9369
26.4283
9439
26.427
9553
26.4256
9553
26.4242
9695
26.4229
9436
26.4215
9480
26.4201
9620
26.4188
9619
26.4174
9645
26.4161
9615
26.4147
9472
26.4133
9604
26.412
9493
26.4106
9721
26.4093
9574
26.4079
9584
26.4065
9617
26.4052
9691
26.4038
9608
26.4024
9565
26.4011
9636
26.3997
9622
26.3984
9696
26.397
9678
26.3956
9589
26.3942
9687
26.3928
9490
26.3914
9556
26.3899
9807
26.3885
9658
26.387
9800
26.3856
9856
26.3841
9619
26.3827
9652
26.3813
9498
26.3798
9670
26.3784
9616
26.3769
9718
26.3755
9681
26.3741
9827
26.3726
9765
26.3712
9761
26.3697
9888
26.3683
9880
26.3669
9886
26.3654
9924
26.364
9729
26.3625
9732
26.3611
9800
26.3597
9671
26.3582
9701
26.3568
9853
26.3553
9894
26.3539
9875
26.3524
9799
26.351
9797
26.3496
9694
26.3481
9853
26.3467
9867
26.3452
9840
26.3438
9844
26.3424
9930
26.3409
9697
26.3395
9743
26.338
9786
26.3366
9948
26.3352
10002
26.3337
9806
26.3323
9827
26.3308
9867
26.3294
9837
26.328
9859
26.3265
9826
26.3251
9900
26.3236
9888
26.3222
10032
26.3208
10024
26.3193
9887
26.3179
9913
26.3164
10067
26.315
10035
26.3135
10027
26.3121
10039
26.3107
10028
26.3092
10004
26.3078
9896
26.3063
9957
26.3049
10051
26.3035
9979
26.302
9953
26.3006
10173
26.2991
10007
26.2977
9888
26.2963
9968
26.2948
9959
26.2934
10079
26.2919
10023
26.2905
10063
26.2891
10035
26.2876
10155
26.2862
9939
26.2847
10166
26.2833
10033
26.2818
9964
26.2804
10087
26.279
10069
26.2775
10120
26.2761
10016
26.2746
10017
26.2732
10202
26.2718
10167
26.2703
10237
26.2689
9994
26.2674
10208
26.266
10177
26.2646
10190
26.2631
10122
26.2617
10234
26.2602
10200
26.2588
10009
26.2574
10222
26.2559
10232
26.2545
10295
26.253
10322
26.2516
10395
26.2501
10151
26.2487
10339
26.2473
10015
26.2458
10106
26.2444
10240
26.2429
10180
26.2415
10167
26.2401
10280
26.2386
10184
26.2372
10279
26.2357
10116
26.2343
10205
26.2329
10132
26.2314
10353
26.23
10281
26.2285
10245
26.2271
10320
26.2257
10358
26.2242
10324
26.2228
10337
26.2231
10328
26.2249
10199
26.2266
10146
26.2283
10322
26.2301
10335
26.2318
10145
26.2336
10245
26.2353
10222
26.237
10461
26.2388
10302
26.2405
10282
26.2423
10407
26.244
10430
26.2458
10329
26.2475
10503
26.2492
10185
26.251
10291
26.2527
10436
26.2545
10372
26.2562
10453
26.2579
10286
26.2597
10408
26.2614
10580
26.2632
10451
26.2649
10382
26.2667
10279
26.2684
10563
26.2701
10613
26.2719
10540
26.2736
10439
26.2754
10429
26.2771
10513
26.2788
10424
26.2806
10320
26.2823
10288
26.2841
10349
26.2858
10558
26.2876
10536
26.2893
10505
26.291
10436
26.2928
10403
26.2945
10451
26.2963
10397
26.298
10400
26.2997
10640
26.3015
10486
26.3032
10573
26.305
10489
26.3067
10576
26.3085
10422
26.3102
10643
26.3119
10406
26.3137
10462
26.3154
10282
26.3172
10373
26.3189
10431
26.3206
10569
26.3224
10452
26.3241
10413
26.3259
10499
26.3276
10666
26.3294
10521
26.3311
10536
26.3328
10478
26.3346
10460
26.3363
10480
26.3381
10588
26.3398
10461
26.3415
10403
26.3433
10464
26.345
10572
26.3468
10665
26.3485
10563
26.3503
10470
26.352
10683
26.3537
10680
26.3555
10721
26.3572
10665
26.359
10584
26.3607
10640
26.3624
10672
26.3642
10660
26.3659
10654
26.3677
10651
26.3694
10746
26.3712
10726
26.3729
10963
26.3746
10866
26.3764
10626
26.3781
10656
26.3799
10541
26.3816
10715
26.3833
10654
26.3851
10787
26.3868
10745
26.3886
10808
26.3903
10758
26.3921
10883
26.3938
10709
26.3955
10810
26.3957
10932
26.3947
10900
26.3937
10842
26.3926
10656
26.3916
10690
26.3906
10822
26.3896
10860
26.3885
10788
26.3875
10814
26.3865
10764
26.3854
10667
26.3844
10815
26.3834
10873
26.3824
11034
26.3813
11007
26.3803
10786
26.3793
11003
26.3782
10974
26.3772
10880
26.3762
10823
26.3752
10886
26.3741
10868
26.3731
10711
26.3721
10865
26.3711
11004
26.37
10964
26.369
10977
26.368
10822
26.3669
10998
26.3659
10977
26.3649
10942
26.3639
10972
26.3628
11099
26.3618
10984
26.3608
10884
26.3597
10944
26.3587
10795
26.3577
10954
26.3567
11021
26.3556
11034
26.3546
11089
26.3536
11129
26.3525
11062
26.3515
11112
26.3505
11136
26.3495
11074
26.3484
11072
26.3474
10983
26.3464
11091
26.3454
11127
26.3443
11170
26.3433
11144
26.3423
11092
26.3412
11165
26.3402
11060
26.3392
11170
26.3382
11019
26.3371
11103
26.3361
10966
26.3351
11039
26.334
11176
26.333
11181
26.332
11075
26.331
11211
26.3299
11299
26.3289
11353
26.3279
11308
26.3268
11510
26.3258
11305
26.3248
11240
26.3238
11274
26.3227
11308
26.3217
11134
26.3207
11164
26.3196
11308
26.3186
11285
26.3176
11183
26.3166
11342
26.3155
11275
26.3145
11253
26.3135
11177
26.3125
11233
26.3114
11111
26.3104
11154
26.3094
11217
26.3083
11329
26.3073
11339
26.3063
11303
26.3053
11174
26.3042
11376
26.3032
11428
26.3022
11211
26.3011
11290
26.3001
11356
26.2991
11402
26.2981
11487
26.297
11421
26.296
11350
26.295
11271
26.2939
11342
26.2929
11571
26.2919
11390
26.2909
11628
26.2898
11338
26.2888
11437
26.2878
11530
26.2868
11701
26.2857
11523
26.2847
11405
26.2837
11482
26.2826
11370
26.2816
11426
26.2806
11386
26.2796
11432
26.2785
11364
26.2775
11523
26.2765
11553
26.2754
11628
26.2744
11415
26.2734
11483
26.2731
11476
26.2735
11441
26.2738
11652
26.2741
11612
26.2745
11448
26.2748
11599
26.2751
11483
26.2755
11482
26.2758
11661
26.2761
11425
26.2765
11473
26.2768
11604
26.2771
11696
26.2775
11499
26.2778
11661
26.2782
11722
26.2785
11546
26.2788
11658
26.2792
11522
26.2795
11533
26.2798
11557
26.2802
11652
26.2805
11712
26.2808
11578
26.2812
11817
26.2815
11824
26.2818
11679
26.2822
11669
26.2825
11684
26.2828
11641
26.2832
11723
26.2835
11771
26.2839
11736
26.2842
11852
26.2845
11927
26.2849
11765
26.2852
11767
26.2855
11906
26.2859
11880
26.2862
11759
26.2865
11762
26.2869
11832
26.2872
11759
26.2875
11936
26.2879
11983
26.2882
11739
26.2885
11696
26.2889
11890
26.2892
11951
26.2896
12131
26.2899
11832
26.2902
11869
26.2906
11756
26.2909
12035
26.2912
11982
26.2916
11924
26.2919
11983
26.2922
11935
26.2926
12067
26.2929
11928
26.2932
11984
26.2936
11947
26.2939
11916
26.2942
12007
26.2946
12008
26.2949
12151
26.2953
12147
26.2956
12217
26.2959
11986
26.2963
11962
26.2966
12019
26.2969
11999
26.2973
11975
26.2976
11933
26.2979
12072
26.2983
12065
26.2986
12003
26.2989
11980
26.2993
11951
26.2996
11959
26.3006
12067
26.3021
12168
26.3035
11982
26.305
11881
26.3065
11982
26.3079
12011
26.3094
12112
26.3109
11980
26.3124
11966
26.3138
11790
26.3153
11955
26.3168
12118
26.3183
11993
26.3197
12018
26.3212
12022
26.3227
11890
26.3241
11885
26.3256
11903
26.3271
12025
26.3286
12145
26.33
12193
26.3315
12162
26.333
12167
26.3345
12103
26.3359
12181
26.3374
12301
26.3389
12252
26.3403
12290
26.3418
12222
26.3433
12511
26.3448
12666
26.3462
12555
26.3477
12481
26.3492
12705
26.3506
12798
26.3521
12876
26.3536
12904
26.3551
12825
26.3565
12936
26.358
12932
26.3595
12979
26.361
12896
26.3624
12822
26.3639
12758
26.3654
12673
26.3668
12575
26.3683
12379
26.3698
12240
26.3713
12116
26.3727
11940
26.3742
11820
26.3757
11714
26.3772
11718
26.3786
11690
26.3801
11471
26.3816
11274
26.383
11315
26.3845
10991
26.386
11014
26.3875
10855
26.3889
10787
26.3904
10703
26.3919
10544
26.3933
10187
26.3948
10210
26.3963
9885
26.3978
9941
26.3992
9838
26.4007
9549
26.4022
9594
26.4037
9533
26.4051
9542
26.4066
9581
26.4081
9583
26.4095
9733
26.411
9731
26.4125
9927
26.414
10141
26.4154
10295
26.4169
10507
26.4184
11059
26.4199
12270
26.4213
13944
26.4228
16965
26.4243
21076
26.4257
27025
26.4272
33680
26.4287
37981
26.4302
37517
26.4316
32415
26.4331
25170
26.4346
18353
26.436
13588
26.4375
10703
26.439
9150
26.4405
8570
26.4419
8227
26.4434
7989
26.4449
8006
26.4464
7803
26.4478
7895
26.4493
7883
26.4508
7860
26.4522
7802
26.4537
7774
26.4552
7707
26.4567
7648
26.4581
7686
26.4596
7735
26.4611
7693
26.4626
7651
26.464
7734
26.4655
7675
26.467
7708
26.4684
7771
26.4699
7787
26.4714
7854
26.4729
7657
26.4743
7619
26.4758
7767
26.4753
7648
26.4734
7780
26.4714
7770
26.4694
7654
26.4674
7799
26.4654
7795
26.4635
7685
26.4615
7585
26.4595
7756
26.4575
7764
26.4556
7799
26.4536
7712
26.4516
7727
26.4496
7690
26.4476
7755
26.4457
7650
26.4437
7761
26.4417
7890
26.4397
7868
26.4377
7932
26.4358
7869
26.4338
7853
26.4318
7798
26.4298
7892
26.4278
7927
26.4259
7809
26.4239
7860
26.4219
7743
26.4199
7666
26.4179
7888
26.416
7722
26.414
7928
26.412
7818
26.41
7825
26.4081
7952
26.4061
7918
26.4041
7987
26.4021
7935
26.4001
7841
26.3982
7939
26.3962
8137
26.3942
8068
26.3922
8037
26.3902
7949
26.3883
7999
26.3863
7997
26.3843
7879
26.3823
7942
26.3803
7718
26.3784
7810
26.3764
7945
26.3744
7787
26.3724
7731
26.3704
7841
26.3685
7940
26.3665
7982
26.3645
7878
26.3625
7964
26.3606
7993
26.3586
8058
26.3566
7966
26.3546
8014
26.3526
7891
26.3507
7938
26.3487
7940
26.3467
7971
26.3447
7936
26.3427
8025
26.3408
8006
26.3388
8045
26.3368
8012
26.3348
8011
26.3328
7940
26.3309
8087
26.3289
8158
26.3269
7983
26.3249
7942
26.323
7916
26.321
7787
26.319
7962
26.3165
8055
26.3135
8084
26.3106
8090
26.3076
8137
26.3047
8138
26.3017
8168
26.2988
8040
26.2958
7968
26.2929
7961
26.2899
8124
26.2869
7971
26.284
8034
26.281
7977
26.2781
8036
26.2751
8095
26.2722
8017
26.2692
8016
26.2663
8081
26.2633
8140
26.2604
8197
26.2574
8164
26.2545
7975
26.2515
8146
26.2486
8136
26.2456
8220
26.2427
8132
26.2397
8166
26.2368
8209
26.2338
8037
26.2309
8214
26.2279
8143
26.225
8110
26.222
8218
26.2191
8175
26.2161
8245
26.2132
8298
26.2102
8256
26.2072
8293
26.2043
8083
26.2013
8245
26.1984
8129
26.1954
8260
26.1925
8250
26.1895
8164
26.1866
8228
26.1836
8327
26.1807
8326
26.1777
8301
26.1748
8209
26.1718
8347
26.1689
8384
26.1659
8360
26.163
8330
26.16
8393
26.1571
8280
26.1541
8356
26.1512
8330
26.1482
8381
26.1453
8308
26.1423
8344
26.1394
8346
26.1364
8413
26.1335
8265
26.1305
8382
26.1275
8371
26.1246
8341
26.1216
8358
26.1187
8363
26.1157
8531
26.1128
8475
26.1098
8484
26.1069
8475
26.1039
8593
26.101
8379
26.098
8562
26.0951
8458
26.0921
8420
26.0892
8473
26.0862
8433
26.0833
8449
26.0803
8498
26.0774
8439
26.0744
8356
26.0715
8337
26.0685
8544
26.0656
8435
26.0626
8678
26.0597
8668
26.0567
8535
26.0538
8479
26.0508
8428
26.0478
8441
26.0449
8325
26.0419
8402
26.039
8374
26.036
8402
26.0331
8499
26.0301
8542
26.0272
8549
26.0242
8534
26.0213
8502
26.0183
8705
26.0154
8624
26.0125
8609
26.0095
8602
26.0066
8495
26.0037
8509
26.0007
8592
25.9978
8617
25.9948
8471
25.9919
8529
25.989
8626
25.986
8626
25.9831
8552
25.9801
8573
25.9772
8443
25.9743
8480
25.9713
8473
25.9684
8423
25.9654
8623
25.9625
8415
25.9596
8566
25.9566
8644
25.9537
8691
25.9507
8571
25.9478
8529
25.9449
8495
25.9419
8568
25.939
8518
25.936
8568
25.9331
8583
25.9302
8584
25.9272
8582
25.9243
8666
25.9214
8682
25.9184
8499
25.9155
8643
25.9125
8728
25.9096
8848
25.9067
8842
25.9037
8672
25.9008
8751
25.8978
8745
25.8949
8839
25.892
8951
25.889
8810
25.8861
8974
25.8831
8995
25.8802
9331
25.8773
9305
25.8743
9364
25.8714
9517
25.8684
9428
25.8655
9395
25.8626
9304
25.8596
9170
25.8567
8804
25.8538
8706
25.8508
8766
25.8479
8611
25.8449
8606
25.842
8563
25.8391
8764
25.8361
8751
25.8332
8749
25.8302
8789
25.8273
8718
25.8244
8745
25.8214
8724
25.8185
8786
25.8155
8704
25.8126
8762
25.8097
8761
25.8067
8825
25.8038
8839
25.8008
8816
25.7979
8835
25.795
8783
25.792
8684
25.7891
8811
25.7909
8782
25.7963
8895
25.8018
8869
25.8073
8928
25.8128
8717
25.8183
8853
25.8237
8935
25.8292
8874
25.8347
8828
25.8402
8843
25.8457
8830
25.8511
8780
25.8566
8872
25.8621
8849
25.8676
8851
25.8731
8760
25.8785
8796
25.884
8902
25.8895
8886
25.895
9022
25.9004
8988
25.9059
9085
25.9114
8910
25.9169
8933
25.9224
9116
25.9278
9049
25.9333
9010
25.9388
9028
25.9443
9162
25.9498
9024
25.9552
8993
25.9607
8820
25.9662
8929
25.9717
9118
25.9772
9089
25.9826
9070
25.9881
9096
25.9936
9038
25.9991
9143
26.0046
9105
26.01
9112
26.0155
9068
26.021
9099
26.0265
9085
26.0319
9132
26.0374
9025
26.0429
9036
26.0484
9188
26.0539
9161
26.0593
9125
26.0648
9207
26.0703
9114
26.0758
9117
26.0813
9197
26.0867
9110
26.0922
9345
26.0977
9159
26.1032
9193
26.1087
9250
26.1141
9356
26.1196
9249
26.1251
9213
26.1306
9412
26.1361
9505
26.1415
9295
26.147
9309
26.1525
9359
26.158
9571
26.1635
9566
26.1689
9590
26.1744
9524
26.1799
9520
26.1854
9582
26.1908
9503
26.1963
9589
26.2018
9734
26.2073
9656
26.2128
9840
26.2182
9753
26.2237
9530
26.2292
9529
26.2347
9555
26.2402
9540
26.2456
9367
26.2511
9552
26.2566
9426
26.2621
9423
26.2676
9486
26.273
9536
26.2785
9509
26.284
9455
26.2895
9480
26.295
9449
26.3004
9473
26.3059
9277
26.3114
9455
26.3169
9567
26.3223
9509
26.3278
9466
26.3333
9312
26.3388
9339
26.3443
9270
26.3497
9226
26.3552
9336
26.3607
9331
26.3662
9238
26.3717
9233
26.3771
9330
26.3826
9227
26.3881
9403
26.3936
9365
26.3991
9283
26.4045
9301
26.41
9348
26.4155
9267
26.421
9215
26.4265
9231
26.4319
9157
26.4374
9272
26.4429
9373
26.4484
9382
26.4539
9503
26.4593
9622
26.4648
9505
26.4703
9481
26.4758
9509
26.4812
9804
26.4867
9718
26.4922
9740
26.4977
9892
26.5032
9920
26.5086
9866
26.5141
9913
26.5196
9972
26.5251
10091
26.5306
10165
26.536
10242
26.5415
10097
26.547
10036
26.5525
9972
26.558
10131
26.5634
10277
26.5689
10468
26.5744
10402
26.5799
10473
26.5854
10432
26.5908
10416
26.5963
10359
26.6018
10390
26.6073
10478
26.6127
10427
26.6182
10370
26.6237
10315
26.6292
10321
26.6347
10209
26.6401
10242
26.6456
10162
26.6511
9887
26.6566
9714
26.6621
9433
26.6675
9207
26.673
8906
26.6785
8604
26.684
8340
26.6895
8064
26.6949
7875
26.7004
7710
26.7059
7383
26.7114
7062
26.7169
7039
26.7223
6692
26.7278
6481
26.7333
6344
26.7388
6073
26.7443
5885
26.7497
5840
26.7552
5712
26.7607
5603
26.7662
5303
26.7716
5245
26.7768
5173
26.7816
5180
26.7864
5148
26.7913
5309
26.7961
5420
26.8009
5352
26.8058
5400
26.8106
5566
26.8154
5886
26.8203
6233
26.8251
6797
26.8299
7468
26.8348
8148
26.8396
9269
26.8444
10234
26.8493
11467
26.8541
13704
26.8589
17343
26.8638
22021
26.8686
26373
26.8734
29814
26.8783
33536
26.8831
40141
26.8879
44981
26.8928
41218
26.8976
29948
26.9024
16809
26.9073
7108
26.9121
3066
26.9169
2039
26.9218
1682
26.9266
1475
26.9314
1369
26.9363
1315
26.9411
1139
26.9459
1067
26.9507
1044
26.9556
1012
26.9604
989
26.9652
1002
26.9701
977
26.9749
949
26.9797
947
26.9846
948
26.9894
931
26.9942
934
26.9991
992
27.0039
970
27.0087
999
27.0136
976
27.0184
1017
27.0232
1049
27.0281
996
27.0329
982
27.0377
981
27.0426
901
27.0474
906
27.0522
913
27.0571
913
27.0619
869
27.0667
898
27.0716
905
27.0764
930
27.0812
848
27.0861
872
27.0909
882
27.0957
838
27.1006
849
27.1054
843
27.1102
869
27.1151
875
27.1199
874
27.1247
915
27.1296
899
27.1344
883
27.1392
891
27.1441
885
27.1489
916
27.1537
861
27.1586
871
27.1634
898
27.1682
927
27.1731
862
27.1779
889
27.1827
836
27.1876
809
27.1924
880
27.1972
894
27.2021
856
27.2069
877
27.2117
836
27.2166
873
27.2214
860
27.2262
891
27.2311
920
27.2359
901
27.2407
898
27.2456
882
27.2504
858
27.2552
831
27.2579
892
27.2589
855
27.26
853
27.261
850
27.262
883
27.263
838
27.264
867
27.265
837
27.2661
864
27.2671
813
27.2681
847
27.2691
835
27.2701
840
27.2711
879
27.2722
898
27.2732
874
27.2742
831
27.2752
872
27.2762
908
27.2772
849
27.2783
874
27.2793
892
27.2803
909
27.2813
938
27.2823
1013
27.2833
1040
27.2844
1024
27.2854
1042
27.2864
1115
27.2874
1100
27.2884
1086
27.2894
1003
27.2905
968
27.2915
990
27.2925
952
27.2935
913
27.2945
866
27.2955
869
27.2966
887
27.2976
902
27.2986
888
27.2996
850
27.3006
895
27.3016
844
27.3027
892
27.3037
872
27.3047
851
27.3057
852
27.3067
812
27.3077
837
27.3088
854
27.3098
867
27.3108
851
27.3118
793
27.3128
800
27.3138
854
27.3149
830
27.3159
846
27.3169
862
27.3179
820
27.3189
845
27.3199
847
27.321
853
27.322
840
27.323
813
27.324
866
27.325
822
27.326
844
27.3271
871
27.3281
825
27.3291
828
27.3301
795
27.3311
786
27.3321
854
27.3332
837
27.3342
887
27.3352
785
27.3362
888
27.3372
806
27.3382
850
27.3393
816
27.3403
809
27.3413
877
27.3423
866
27.3433
822
27.3443
838
27.3454
854
27.3464
892
27.3474
904
27.3484
993
27.3494
1024
27.3504
1101
27.3515
1084
27.3525
1147
27.3535
1066
27.3545
997
27.3555
905
27.3565
917
27.3576
928
27.3586
865
27.3596
832
27.3606
805
27.3616
805
27.3626
782
27.3637
828
27.3647
820
27.3657
840
27.3667
852
27.3677
790
27.3687
834
27.3698
816
27.3708
848
27.3718
796
27.3728
840
27.3738
833
27.3748
825
27.3759
813
27.3769
824
27.3779
796
27.3789
852
27.3785
851
27.3771
826
27.3756
853
27.3741
825
27.3726
779
27.3711
818
27.3696
780
27.3682
823
27.3667
791
27.3652
813
27.3637
794
27.3622
780
27.3608
800
27.3593
793
27.3578
804
27.3563
794
27.3548
789
27.3534
850
27.3519
808
27.3504
834
27.3489
820
27.3474
777
27.346
766
27.3445
780
27.343
790
27.3415
868
27.34
814
27.3386
839
27.3371
834
27.3356
856
27.3341
916
27.3326
931
27.3312
1023
27.3297
1132
27.3282
1222
27.3267
1290
27.3252
1255
27.3238
1197
27.3223
1024
27.3208
909
27.3193
815
27.3178
775
27.3164
776
27.3149
749
27.3134
726
27.3119
724
27.3104
755
27.309
719
27.3075
739
27.306
769
27.3045
735
27.303
758
27.3016
798
27.3001
765
27.2986
787
27.2971
780
27.2956
825
27.2942
894
27.2927
945
27.2912
929
27.2897
959
27.2882
1010
27.2867
1087
27.2853
1128
27.2838
1214
27.2823
1197
27.2808
1185
27.2793
1092
27.2779
1050
27.2764
1003
27.2749
897
27.2734
821
27.2719
826
27.2705
764
27.269
717
27.2675
759
27.266
756
27.2645
755
27.2631
741
27.2616
722
27.2601
708
27.2586
719
27.2571
753
27.2557
715
27.2542
741
27.2527
745
27.2512
737
27.2497
783
27.2483
780
27.2468
769
27.2453
734
27.2438
750
27.2423
742
27.2409
768
27.2394
735
27.2379
735
27.2364
700
27.2349
707
27.2335
757
27.232
722
27.2305
723
27.229
732
27.2275
704
27.2261
780
27.2246
789
27.2231
752
27.2216
746
27.2201
760
27.2187
771
27.2172
732
27.2157
749
27.2142
735
27.2197
727
27.2307
753
27.2417
749
27.2528
747
27.2638
744
27.2748
788
27.2858
753
27.2968
770
27.3078
766
27.3188
801
27.3298
761
27.3409
750
27.3519
760
27.3629
726
27.3739
762
27.3849
747
27.3959
717
27.4069
747
27.4179
799
27.4289
767
27.44
726
27.451
715
27.462
779
27.473
743
27.484
777
27.495
704
27.506
755
27.517
787
27.5281
763
27.5391
748
27.5501
735
27.5611
727
27.5721
757
27.5831
718
27.5941
768
27.6051
738
27.6161
706
27.6272
662
27.6382
706
27.6492
720
27.6602
737
27.6712
726
27.6822
755
27.6932
746
27.7042
754
27.7153
732
27.7263
737
27.7373
815
27.7483
821
27.7593
863
27.7703
960
27.7813
982
27.7923
1033
27.8034
1093
27.8144
1131
27.8254
1159
27.8364
1132
27.8474
1072
27.8584
975
27.8694
912
27.8804
815
27.8914
742
27.9025
722
27.9135
760
27.9245
714
27.9355
688
27.9465
729
27.9575
702
27.9685
745
27.9795
708
27.9906
774
28.0016
786
28.0126
715
28.0236
724
28.0346
744
28.0456
744
28.0566
769
28.0676
814
28.0786
785
28.0897
768
28.1007
766
28.1117
803
28.1227
754
28.1337
699
28.1447
693
28.1557
753
28.1667
739
28.1778
739
28.1888
726
28.1998
752
28.2108
705
28.2218
741
28.2328
740
28.2438
771
28.2548
730
28.2658
709
28.2769
720
28.2879
739
28.2989
722
28.3099
706
28.3209
737
28.3319
744
28.3429
729
28.3539
747
28.365
730
28.376
718
28.387
725
28.398
724
28.409
712
28.42
760
28.431
681
28.442
799
28.453
745
28.4641
772
28.4751
750
28.4861
669
28.4971
729
28.5081
765
28.5191
720
28.5301
703
28.5411
754
28.5522
779
28.5632
718
28.5742
728
28.5852
734
28.5962
733
28.6072
723
28.6182
703
28.6292
779
28.6402
758
28.6513
730
28.6623
726
28.6733
700
28.6843
715
28.6953
751
28.7063
780
28.7173
706
28.7283
750
28.7394
756
28.7504
778
28.7614
762
28.7724
738
28.7834
768
28.7944
792
28.8054
752
28.8164
775
28.8274
800
28.8385
812
28.8495
783
28.8605
776
28.8715
775
28.8825
747
28.8935
787
28.9045
779
28.9155
796
28.9266
828
28.9376
809
28.9486
800
28.9596
826
28.9706
838
28.9816
783
28.9926
786
29.0036
810
29.0146
781
29.0257
788
29.0367
812
29.0477
807
29.0587
797
29.0697
789
29.0807
762
29.0917
771
29.1027
794
29.1138
781
29.1248
787
29.1358
747
29.1468
743
29.1578
750
29.1688
738
29.1798
705
29.1908
725
29.2018
713
29.2129
702
29.2239
662
29.2349
675
29.2459
691
29.2569
681
29.2679
697
29.2789
659
29.2899
662
29.301
666
29.312
664
29.323
624
29.334
642
29.345
632
29.356
671
29.367
643
29.378
716
29.389
692
29.4001
757
29.4111
793
29.4221
847
29.4331
879
29.4441
936
29.4551
998
29.4661
1068
29.4771
1143
29.4882
1214
29.4992
1261
29.504
1256
29.504
1327
29.504
1187
29.504
1094
29.504
1005
29.504
890
29.504
796
29.504
744
29.504
720
29.504
729
29.504
761
29.504
771
29.504
864
29.504
866
29.504
934
29.504
921
29.504
901
29.504
918
29.504
878
29.504
862
29.504
869
29.504
841
29.504
810
29.504
801
29.504
771
29.504
739
29.504
730
29.504
718
29.504
704
29.504
657
29.504
645
29.504
639
29.504
611
29.504
606
29.504
550
29.504
521
29.504
497
29.504
452
29.504
452
29.504
442
29.504
416
29.504
362
29.504
352
29.504
307
29.504
243
29.504
197
29.504
156
29.504
118
29.504
82
29.504
58
29.504
44
29.504
33
29.504
33
29.504
Survey/5
Not Specified
2017
9
21
20
10
22
0
3
   XPS     Spectrum    Lens Mode:Hybrid   Resolution:Pass energy 160   Iris(Aper):slot(Slot)
   Acqn. Time(s): 540        Sweeps: 2        Anode:Mono(Al (Mono))(150 W)   Step(meV): 500.0 
   Dwell Time(ms): 100        Charge Neutraliser :On   Acquired On :17/09/21 20:10:22
XPS
95.124
1.613
0
Mono(Al (Mono))
1486.69
150
1E+37
1E+37
6000
6000
1E+37
1E+37
FAT
160
1E+37
-4.803
0
1E+37
1E+37
1E+37
1E+37
Wide
None
-1
Kinetic Energy
eV
136.69
0.5
2
Intensity
d
Transmission
d
pulse counting
0.1
2
0
1E+37
1E+37
1E+37
0
5402
102
40487
25.7891
29.504
11808
27.0049
11731
27.0049
11748
27.0049
11708
27.0049
11849
27.0049
11879
27.0049
11739
27.0049
11796
27.0049
11738
27.0049
11880
27.0049
11987
27.0049
11842
27.0049
11768
27.0049
11799
27.0049
11684
27.0049
11806
27.0049
11614
27.0049
11621
27.0049
11625
27.0049
11844
27.0049
11875
27.0049
11559
27.0049
11725
27.0049
11800
27.0049
11850
27.0049
11665
27.0049
11823
27.0049
11631
27.0049
11734
27.0049
11799
27.0049
11746
27.0049
11790
27.0049
11820
27.0049
11942
27.0049
11855
27.0049
11919
27.0049
11886
27.0049
11818
27.0049
11848
27.0049
11877
27.0049
11864
27.0049
11765
27.0049
11950
27.0049
11906
27.0049
11902
27.0049
11797
27.0049
11646
27.0049
11762
27.0049
11747
27.0049
11877
27.0049
11907
27.0049
11930
27.0049
11882
27.0049
11812
27.0049
11903
27.0049
11918
27.0049
11879
27.0049
11917
27.0049
12015
27.0049
11986
27.0049
12061
27.0049
12037
27.0049
12135
27.0049
12082
27.0049
12035
27.0049
11929
27.0049
11932
27.0049
11991
27.0049
11908
27.0049
11971
27.0049
11986
27.0049
11862
27.0049
11801
27.0049
12034
27.0049
11996
27.0049
11838
27.0049
11797
27.0049
11953
27.0049
12029
27.0049
11875
27.0049
11909
27.0049
11797
27.0049
11879
27.0049
12055
27.0049
11983
27.0049
12062
27.0049
12391
27.0049
12446
27.0049
12384
27.0049
12543
27.0049
12655
27.0049
13040
27.0049
12917
27.0049
12798
27.0049
12843
27.0049
12623
27.0049
12688
27.0049
12496
27.0049
12543
27.0049
12313
27.0049
12401
27.0049
12286
27.0049
12308
27.0049
12444
27.0049
12328
27.0049
12487
27.0049
12255
27.0049
12298
27.0049
12269
27.0049
12210
27.0049
12318
27.0049
12441
27.0049
12528
27.0049
12241
27.0049
12444
27.0049
12452
27.0049
12442
27.0049
12398
27.0049
12322
27.0049
12409
27.0049
12473
27.0049
12592
27.0049
12513
27.0049
12449
27.0049
12531
27.0049
12704
27.0049
12531
27.0049
12558
27.0049
12674
27.0049
12642
27.0049
12776
27.0049
12689
27.0049
12670
27.0049
12851
27.0049
12763
27.0049
12680
27.0049
12702
27.0049
12655
27.0049
12801
27.0049
12741
27.0049
12836
27.0049
12912
27.0049
12907
27.0049
12977
27.0049
12895
27.0049
12875
27.0049
13044
27.0049
13095
27.005
12885
27.005
12819
27.0051
12848
27.0051
12866
27.0052
13000
27.0052
13003
27.0053
13014
27.0054
13029
27.0054
13161
27.0055
13254
27.0055
13155
27.0056
13240
27.0056
13134
27.0057
13178
27.0057
13175
27.0058
13210
27.0059
13096
27.0059
13104
27.006
13298
27.006
13302
27.0061
13379
27.0061
13290
27.0062
13306
27.0063
13459
27.0063
13275
27.0064
13385
27.0064
13488
27.0065
13252
27.0065
13358
27.0066
13656
27.0067
13535
27.0067
13486
27.0068
13421
27.0068
13305
27.0069
13556
27.0069
13689
27.007
13682
27.007
13615
27.0071
13753
27.0072
13671
27.0072
13662
27.0073
13789
27.0073
13664
27.0074
13719
27.0074
13649
27.0075
13773
27.0076
13842
27.0076
13881
27.0077
13971
27.0077
13788
27.0078
14221
27.0078
14154
27.0079
14002
27.008
14110
27.008
14202
27.0081
14241
27.0081
14311
27.0082
14378
27.0082
14488
27.0083
14513
27.0083
14486
27.0084
14501
27.0085
14628
27.0085
14494
27.0086
14569
27.0086
14533
27.0087
14365
27.0087
14372
27.0088
14622
27.0089
14304
27.0089
14451
27.009
14566
27.009
14508
27.0091
14692
27.0091
14645
27.0092
14411
27.0093
14440
27.0093
14536
27.0094
14568
27.0094
14480
27.0095
14497
27.0095
14533
27.0096
14544
27.0096
14703
27.0097
14739
27.0098
15037
27.0098
14885
27.0099
15049
27.0099
15109
27.01
15361
27.01
15411
27.0101
15584
27.0102
15731
27.0102
15834
27.0103
15672
27.0103
16009
27.0104
15916
27.0104
15745
27.0105
15776
27.0105
15988
27.0115
16035
27.0131
15872
27.0148
15976
27.0164
16060
27.018
16028
27.0197
16213
27.0213
15914
27.0229
15672
27.0246
15801
27.0262
15878
27.0278
15663
27.0295
15439
27.0311
15321
27.0327
15283
27.0344
15127
27.036
14847
27.0377
14699
27.0393
14475
27.0409
14415
27.0426
14316
27.0442
14312
27.0458
14157
27.0475
13702
27.0491
13523
27.0507
13482
27.0524
12957
27.054
12993
27.0556
12870
27.0573
12608
27.0589
12403
27.0605
12451
27.0622
12205
27.0638
12301
27.0655
11975
27.0671
11830
27.0687
11960
27.0704
11752
27.072
11602
27.0736
11489
27.0753
11455
27.0769
11287
27.0785
11399
27.0802
11195
27.0818
11181
27.0834
11314
27.0851
11178
27.0867
11039
27.0883
11023
27.09
11101
27.0916
10942
27.0933
11039
27.0949
11248
27.0965
11045
27.0982
11159
27.0998
11198
27.1014
11017
27.1031
11166
27.1047
11215
27.1063
11256
27.108
11216
27.1096
11234
27.1112
11383
27.1129
11401
27.1145
11270
27.1161
11210
27.1178
11321
27.1194
11184
27.1211
11224
27.1227
11389
27.1243
11339
27.126
11209
27.1276
11115
27.1292
11182
27.1309
11338
27.1325
11358
27.1341
11317
27.1358
11333
27.1374
11271
27.139
11411
27.1407
11511
27.1423
11301
27.1439
11345
27.1456
11436
27.1472
11393
27.1489
11433
27.1505
11471
27.1521
11161
27.1538
11413
27.1554
11455
27.157
11312
27.1587
11408
27.1603
11443
27.1619
11678
27.1636
11497
27.1652
11501
27.1668
11615
27.1685
11728
27.1701
11416
27.1717
11541
27.1734
11803
27.1731
11558
27.1714
11421
27.1697
11394
27.168
11712
27.1663
11697
27.1646
11698
27.1629
11780
27.1612
11662
27.1595
11711
27.1578
11761
27.1561
11628
27.1544
11622
27.1527
11680
27.151
11670
27.1493
11763
27.1476
11743
27.1459
11770
27.1442
11818
27.1425
11974
27.1407
11817
27.139
11732
27.1373
12012
27.1356
11796
27.1339
11905
27.1322
11934
27.1305
11835
27.1288
11988
27.1271
11992
27.1254
12031
27.1237
11828
27.122
12033
27.1203
11887
27.1186
11718
27.1169
11996
27.1152
12039
27.1135
12113
27.1118
12054
27.11
12096
27.1083
12137
27.1066
12032
27.1049
12129
27.1032
12053
27.1015
12089
27.0998
12033
27.0981
12058
27.0964
11876
27.0947
12056
27.093
12216
27.0913
12227
27.0896
12145
27.0879
12260
27.0862
12187
27.0845
12081
27.0828
12050
27.0811
12228
27.0793
12248
27.0776
12357
27.0759
12365
27.0742
12319
27.0725
12515
27.0708
12559
27.0691
12324
27.0674
12259
27.0657
12385
27.064
12573
27.0623
12325
27.0606
12348
27.0589
12419
27.0572
12618
27.0555
12282
27.0538
12468
27.0521
12521
27.0504
12407
27.0487
12441
27.0469
12609
27.0452
12589
27.0435
12489
27.0418
12469
27.0401
12493
27.0384
12491
27.0367
12456
27.035
12510
27.0333
12569
27.0316
12593
27.0299
12785
27.0282
12613
27.0265
12704
27.0248
12677
27.0231
12622
27.0214
12594
27.0197
12598
27.018
12429
27.0162
12693
27.0145
12714
27.0128
12819
27.0111
12863
27.0094
12730
27.0077
12743
27.006
12847
27.0043
12718
27.0023
12795
26.9999
12716
26.9976
12843
26.9953
12955
26.993
13022
26.9907
12853
26.9884
12839
26.9861
12932
26.9837
12810
26.9814
12914
26.9791
12902
26.9768
13012
26.9745
12934
26.9722
13008
26.9699
13104
26.9675
12995
26.9652
13118
26.9629
12999
26.9606
13021
26.9583
13046
26.956
13000
26.9536
13203
26.9513
13026
26.949
13252
26.9467
13132
26.9444
13145
26.9421
13341
26.9398
13244
26.9374
13016
26.9351
13234
26.9328
13145
26.9305
13118
26.9282
13351
26.9259
13329
26.9235
13281
26.9212
13406
26.9189
13441
26.9166
13463
26.9143
13289
26.912
13259
26.9097
13437
26.9073
13553
26.905
13569
26.9027
13567
26.9004
13355
26.8981
13393
26.8958
13520
26.8935
13368
26.8911
13384
26.8888
13435
26.8865
13499
26.8842
13320
26.8819
13528
26.8796
13694
26.8772
13703
26.8749
13604
26.8726
13379
26.8703
13612
26.868
13782
26.8657
13557
26.8634
13661
26.861
13741
26.8587
13647
26.8564
13538
26.8541
13460
26.8518
13672
26.8495
13518
26.8471
13454
26.8448
13702
26.8425
13748
26.8402
13791
26.8379
13767
26.8356
13776
26.8333
13753
26.8309
13616
26.8286
13730
26.8263
14040
26.824
13936
26.8217
13858
26.8194
13677
26.8171
13774
26.8147
13689
26.8124
13753
26.8101
13814
26.8078
13881
26.8055
14016
26.8032
14080
26.8008
14040
26.7985
13873
26.7962
13964
26.7939
13853
26.7916
13962
26.7893
13952
26.787
13747
26.7846
13903
26.7823
14041
26.78
13929
26.7777
14124
26.7754
14067
26.7731
14025
26.7707
14131
26.7682
14011
26.7657
14104
26.7633
14077
26.7608
14226
26.7584
14053
26.7559
14252
26.7534
14327
26.751
14257
26.7485
14310
26.7461
14243
26.7436
14309
26.7411
14403
26.7387
14416
26.7362
14380
26.7337
14292
26.7313
14235
26.7288
14269
26.7264
13938
26.7239
14254
26.7214
14075
26.719
14499
26.7165
14425
26.7141
14370
26.7116
14298
26.7091
14462
26.7067
14369
26.7042
14458
26.7018
14445
26.6993
14411
26.6968
14538
26.6944
14357
26.6919
14384
26.6894
14511
26.687
14551
26.6845
14732
26.6821
14660
26.6796
14517
26.6771
14502
26.6747
14522
26.6722
14467
26.6698
14625
26.6673
14626
26.6648
14637
26.6624
14440
26.6599
14577
26.6574
14592
26.655
14612
26.6525
14676
26.6501
14841
26.6476
14841
26.6451
14890
26.6427
14723
26.6402
14851
26.6378
14899
26.6353
14829
26.6328
14876
26.6304
15056
26.6279
14819
26.6255
14982
26.623
14983
26.6205
15097
26.6181
15090
26.6156
15038
26.6131
15132
26.6107
14854
26.6082
15053
26.6058
14926
26.6033
15211
26.6008
15091
26.5984
15152
26.5959
15043
26.5935
15088
26.591
15288
26.5885
15003
26.5861
15065
26.5836
15323
26.5812
15255
26.5787
15289
26.5762
15156
26.5738
15087
26.5713
15240
26.5688
15109
26.5664
15350
26.5639
15314
26.5615
15170
26.559
15244
26.5565
15264
26.5541
15168
26.5516
15230
26.5492
15338
26.5467
15420
26.5442
15477
26.5418
15249
26.5393
15329
26.5368
15425
26.5344
15244
26.5319
15151
26.5295
15489
26.527
15471
26.5256
15455
26.5249
15447
26.5243
15613
26.5236
15474
26.523
15574
26.5223
15669
26.5217
15881
26.521
16115
26.5204
15845
26.5198
16005
26.5191
15899
26.5185
15909
26.5178
15925
26.5172
15857
26.5165
16058
26.5159
15931
26.5153
15661
26.5146
15708
26.514
15821
26.5133
15850
26.5127
15723
26.512
15866
26.5114
15885
26.5107
15911
26.5101
15981
26.5095
16045
26.5088
16054
26.5082
15905
26.5075
15791
26.5069
15790
26.5062
15843
26.5056
15878
26.5049
15831
26.5043
15862
26.5037
16158
26.503
16125
26.5024
15847
26.5017
15952
26.5011
16183
26.5004
16129
26.4998
15988
26.4992
16072
26.4985
16185
26.4979
16297
26.4972
16466
26.4966
16634
26.4959
16587
26.4953
16688
26.4946
16836
26.494
16779
26.4934
16819
26.4927
16729
26.4921
16732
26.4914
16657
26.4908
16833
26.4901
16775
26.4895
16687
26.4888
16749
26.4882
16820
26.4876
16855
26.4869
16525
26.4863
16479
26.4856
16434
26.485
16441
26.4843
16199
26.4837
15980
26.483
16042
26.4824
15910
26.4818
15999
26.4811
15908
26.4805
15682
26.4798
15582
26.4792
15410
26.4785
15364
26.4779
15564
26.4773
15532
26.4766
15415
26.476
15543
26.4753
15272
26.4747
15512
26.474
15453
26.4734
15354
26.4727
15339
26.4721
15763
26.4715
15848
26.4708
15879
26.4702
15788
26.4695
16034
26.4689
16485
26.4682
16797
26.4676
16990
26.4669
17165
26.4663
17220
26.4657
17532
26.465
17472
26.4644
17698
26.4637
17837
26.4631
17833
26.4624
17790
26.4618
17737
26.461
17861
26.4601
17704
26.4592
17615
26.4583
17564
26.4574
17215
26.4565
17227
26.4556
16848
26.4547
16874
26.4539
16712
26.453
16534
26.4521
16202
26.4512
15610
26.4503
15531
26.4494
15300
26.4485
14914
26.4476
14669
26.4467
14442
26.4458
14199
26.4449
13821
26.444
13630
26.4431
13506
26.4422
13129
26.4413
12986
26.4404
13109
26.4395
12918
26.4387
12804
26.4378
12710
26.4369
12754
26.436
12702
26.4351
12638
26.4342
12644
26.4333
12634
26.4324
12582
26.4315
12582
26.4306
12571
26.4297
12425
26.4288
12625
26.4279
12465
26.427
12337
26.4261
12534
26.4252
12471
26.4243
12497
26.4234
12448
26.4226
12559
26.4217
12516
26.4208
12578
26.4199
12422
26.419
12375
26.4181
12487
26.4172
12330
26.4163
12519
26.4154
12496
26.4145
12357
26.4136
12366
26.4127
12369
26.4118
12359
26.4109
12452
26.41
12503
26.4091
12505
26.4082
12380
26.4074
12347
26.4065
12451
26.4056
12446
26.4047
12484
26.4038
12482
26.4029
12464
26.402
12538
26.4011
12550
26.4002
12354
26.3993
12512
26.3984
12640
26.3975
12564
26.3966
12574
26.3957
12616
26.3948
12520
26.3939
12540
26.393
12536
26.3921
12492
26.3913
12541
26.3904
12566
26.3895
12607
26.3886
12571
26.3877
12591
26.3868
12590
26.3859
12607
26.385
12607
26.3841
12566
26.3832
12719
26.3823
12695
26.3814
12572
26.3805
12482
26.3796
12501
26.3787
12659
26.3778
12445
26.3769
12495
26.376
12591
26.3752
12572
26.3743
12497
26.3734
12413
26.3725
12668
26.3723
12569
26.3727
12638
26.3731
12655
26.3735
12623
26.3738
12609
26.3742
12566
26.3746
12426
26.375
12399
26.3754
12608
26.3758
12554
26.3762
12739
26.3766
12551
26.3769
12397
26.3773
12687
26.3777
12504
26.3781
12550
26.3785
12649
26.3789
12549
26.3793
12646
26.3797
12689
26.38
12848
26.3804
12573
26.3808
12633
26.3812
12586
26.3816
12508
26.382
12459
26.3824
12595
26.3828
12302
26.3831
12460
26.3835
12639
26.3839
12582
26.3843
12570
26.3847
12587
26.3851
12809
26.3855
12682
26.3859
12671
26.3862
12654
26.3866
12583
26.387
12747
26.3874
12584
26.3878
12453
26.3882
12517
26.3886
12733
26.389
12724
26.3893
12641
26.3897
12682
26.3901
12537
26.3905
12722
26.3909
12559
26.3913
12566
26.3917
12645
26.3921
12725
26.3924
12727
26.3928
12679
26.3932
12560
26.3936
12605
26.394
12676
26.3944
12671
26.3948
12810
26.3952
12626
26.3955
12807
26.3959
12787
26.3963
12753
26.3967
12731
26.3971
12743
26.3975
12582
26.3979
12792
26.3983
12688
26.3986
12719
26.399
12684
26.3994
12703
26.3998
12669
26.4002
12707
26.4006
12786
26.401
12637
26.4014
12556
26.4017
12571
26.4021
12563
26.4025
12400
26.4029
12404
26.4033
12424
26.4037
12649
26.4041
12522
26.4045
12433
26.4048
12624
26.4052
12601
26.4056
12467
26.406
12530
26.4064
12560
26.4068
12475
26.4072
12396
26.4076
12426
26.4079
12512
26.4083
12456
26.4087
12393
26.4091
12461
26.4095
12523
26.4099
12561
26.4103
12446
26.4107
12480
26.4113
12687
26.4123
12542
26.4132
12358
26.4141
12403
26.4151
12504
26.416
12590
26.4169
12679
26.4179
12690
26.4188
12416
26.4197
12435
26.4207
12416
26.4216
12610
26.4225
12347
26.4234
12341
26.4244
12373
26.4253
12370
26.4262
12466
26.4272
12466
26.4281
12478
26.429
12369
26.43
12405
26.4309
12468
26.4318
12374
26.4328
12516
26.4337
12444
26.4346
12486
26.4356
12301
26.4365
12452
26.4374
12539
26.4383
12496
26.4393
12469
26.4402
12506
26.4411
12589
26.4421
12369
26.443
12576
26.4439
12506
26.4449
12411
26.4458
12436
26.4467
12406
26.4477
12429
26.4486
12433
26.4495
12497
26.4505
12560
26.4514
12617
26.4523
12596
26.4532
12611
26.4542
12537
26.4551
12637
26.456
12463
26.457
12464
26.4579
12484
26.4588
12330
26.4598
12281
26.4607
12312
26.4616
12371
26.4626
12389
26.4635
12384
26.4644
12551
26.4654
12488
26.4663
12331
26.4672
12392
26.4681
12385
26.4691
12361
26.47
12417
26.4709
12414
26.4719
12316
26.4728
12268
26.4737
12376
26.4747
12318
26.4756
12326
26.4765
12443
26.4775
12357
26.4784
12298
26.4793
12361
26.4803
12420
26.4812
12301
26.4821
12282
26.483
12191
26.484
12240
26.4849
12296
26.4858
12494
26.4868
12413
26.4877
12219
26.4886
12207
26.4896
12193
26.4905
12174
26.4914
12331
26.4924
12315
26.4933
12052
26.4942
11980
26.4952
11899
26.4961
12111
26.497
12172
26.4979
12092
26.4989
12020
26.4998
12029
26.5007
12047
26.5017
12135
26.5026
12175
26.5035
12148
26.5032
12326
26.5018
12083
26.5005
12006
26.4991
12115
26.4977
12147
26.4964
12152
26.495
12057
26.4937
12319
26.4923
12076
26.4909
12133
26.4896
11985
26.4882
12005
26.4868
11985
26.4855
12138
26.4841
12077
26.4828
12078
26.4814
12078
26.48
12068
26.4787
12084
26.4773
12226
26.476
12205
26.4746
12171
26.4732
12144
26.4719
12128
26.4705
12135
26.4691
11924
26.4678
12240
26.4664
12133
26.4651
12207
26.4637
12133
26.4623
12185
26.461
12257
26.4596
12201
26.4583
12138
26.4569
12256
26.4555
12104
26.4542
12219
26.4528
12386
26.4515
12140
26.4501
12110
26.4487
12059
26.4474
11971
26.446
12122
26.4446
12298
26.4433
12114
26.4419
12217
26.4406
12258
26.4392
12156
26.4378
12041
26.4365
12142
26.4351
12276
26.4338
12033
26.4324
12244
26.431
12240
26.4297
12169
26.4283
12107
26.427
12032
26.4256
12242
26.4242
12356
26.4229
12391
26.4215
12264
26.4201
12221
26.4188
12264
26.4174
12300
26.4161
12253
26.4147
12067
26.4133
12205
26.412
12129
26.4106
12205
26.4093
12344
26.4079
12164
26.4065
12260
26.4052
12354
26.4038
12448
26.4024
12360
26.4011
12406
26.3997
12448
26.3984
12328
26.397
12357
26.3956
12394
26.3942
12404
26.3928
12452
26.3914
12348
26.3899
12308
26.3885
12367
26.387
12496
26.3856
12430
26.3841
12326
26.3827
12365
26.3813
12277
26.3798
12318
26.3784
12312
26.3769
12457
26.3755
12345
26.3741
12258
26.3726
12257
26.3712
12413
26.3697
12185
26.3683
12296
26.3669
12311
26.3654
12217
26.364
12131
26.3625
12184
26.3611
12326
26.3597
12218
26.3582
12194
26.3568
12269
26.3553
12357
26.3539
12256
26.3524
12139
26.351
12340
26.3496
12248
26.3481
12196
26.3467
12262
26.3452
12214
26.3438
12312
26.3424
12171
26.3409
12189
26.3395
12286
26.338
12272
26.3366
12183
26.3352
12183
26.3337
12183
26.3323
12242
26.3308
12220
26.3294
12236
26.328
11989
26.3265
12088
26.3251
12148
26.3236
11989
26.3222
12082
26.3208
12044
26.3193
12081
26.3179
12166
26.3164
12119
26.315
12193
26.3135
12212
26.3121
12154
26.3107
12187
26.3092
12369
26.3078
12330
26.3063
12215
26.3049
12169
26.3035
12095
26.302
12243
26.3006
12073
26.2991
12074
26.2977
12261
26.2963
12332
26.2948
12206
26.2934
12164
26.2919
12178
26.2905
12327
26.2891
12331
26.2876
12290
26.2862
12194
26.2847
12153
26.2833
12283
26.2818
12218
26.2804
12142
26.279
12228
26.2775
12323
26.2761
12362
26.2746
12275
26.2732
12293
26.2718
12444
26.2703
12339
26.2689
12118
26.2674
12310
26.266
12485
26.2646
12350
26.2631
12239
26.2617
12132
26.2602
12264
26.2588
12126
26.2574
12297
26.2559
12377
26.2545
12277
26.253
12236
26.2516
12192
26.2501
12159
26.2487
12359
26.2473
12317
26.2458
12175
26.2444
12321
26.2429
12292
26.2415
12260
26.2401
12191
26.2386
12292
26.2372
12177
26.2357
12242
26.2343
12386
26.2329
12275
26.2314
12321
26.23
12182
26.2285
12209
26.2271
12351
26.2257
12569
26.2242
12593
26.2228
12433
26.2231
12338
26.2249
12357
26.2266
12588
26.2283
12342
26.2301
12306
26.2318
12333
26.2336
12328
26.2353
12168
26.237
12000
26.2388
12220
26.2405
12138
26.2423
12235
26.244
12263
26.2458
12095
26.2475
12049
26.2492
12086
26.251
12112
26.2527
12076
26.2545
11943
26.2562
12172
26.2579
11924
26.2597
11875
26.2614
12170
26.2632
12002
26.2649
12220
26.2667
12176
26.2684
12310
26.2701
12406
26.2719
12622
26.2736
12494
26.2754
12521
26.2771
12339
26.2788
12339
26.2806
12077
26.2823
11911
26.2841
11771
26.2858
11658
26.2876
11654
26.2893
11738
26.291
11607
26.2928
11564
26.2945
11302
26.2963
11387
26.298
11431
26.2997
11519
26.3015
11485
26.3032
11401
26.305
11328
26.3067
11312
26.3085
11433
26.3102
11422
26.3119
11378
26.3137
11354
26.3154
11533
26.3172
11303
26.3189
11286
26.3206
11363
26.3224
11347
26.3241
11328
26.3259
11254
26.3276
11350
26.3294
11350
26.3311
11557
26.3328
11533
26.3346
11448
26.3363
11612
26.3381
11524
26.3398
11366
26.3415
11490
26.3433
11294
26.345
11331
26.3468
11323
26.3485
11395
26.3503
11326
26.352
11379
26.3537
11355
26.3555
11432
26.3572
11429
26.359
11529
26.3607
11320
26.3624
11293
26.3642
11337
26.3659
11354
26.3677
11307
26.3694
11467
26.3712
11460
26.3729
11392
26.3746
11344
26.3764
11397
26.3781
11506
26.3799
11433
26.3816
11400
26.3833
11383
26.3851
11418
26.3868
11372
26.3886
11481
26.3903
11600
26.3921
11541
26.3938
11514
26.3955
11423
26.3957
11450
26.3947
11485
26.3937
11664
26.3926
11538
26.3916
11507
26.3906
11480
26.3896
11554
26.3885
11406
26.3875
11612
26.3865
11630
26.3854
11745
26.3844
11628
26.3834
11629
26.3824
11451
26.3813
11561
26.3803
11614
26.3793
11582
26.3782
11508
26.3772
11657
26.3762
11732
26.3752
11472
26.3741
11589
26.3731
11699
26.3721
11588
26.3711
11569
26.37
11675
26.369
11612
26.368
11789
26.3669
11658
26.3659
11770
26.3649
11593
26.3639
11570
26.3628
11746
26.3618
11659
26.3608
11610
26.3597
11675
26.3587
11694
26.3577
11683
26.3567
11613
26.3556
11715
26.3546
11763
26.3536
11592
26.3525
11714
26.3515
11658
26.3505
11665
26.3495
11740
26.3484
11532
26.3474
11774
26.3464
11821
26.3454
11663
26.3443
11672
26.3433
11762
26.3423
11824
26.3412
11776
26.3402
11641
26.3392
11824
26.3382
11821
26.3371
11939
26.3361
11929
26.3351
11828
26.334
11953
26.333
11972
26.332
11866
26.331
11896
26.3299
11783
26.3289
11825
26.3279
11866
26.3268
12015
26.3258
11890
26.3248
11818
26.3238
11795
26.3227
11974
26.3217
12038
26.3207
12123
26.3196
11966
26.3186
11840
26.3176
11876
26.3166
12009
26.3155
11975
26.3145
11858
26.3135
11657
26.3125
11906
26.3114
11894
26.3104
11913
26.3094
12031
26.3083
11686
26.3073
11879
26.3063
11842
26.3053
11835
26.3042
11903
26.3032
11878
26.3022
11740
26.3011
11842
26.3001
11859
26.2991
11919
26.2981
11964
26.297
11807
26.296
11798
26.295
11980
26.2939
11666
26.2929
11638
26.2919
11826
26.2909
11952
26.2898
12075
26.2888
12075
26.2878
12079
26.2868
12085
26.2857
12085
26.2847
12095
26.2837
12004
26.2826
11958
26.2816
11992
26.2806
12040
26.2796
11985
26.2785
11874
26.2775
12074
26.2765
12029
26.2754
12278
26.2744
12053
26.2734
11962
26.2731
11836
26.2735
12101
26.2738
11983
26.2741
11888
26.2745
12068
26.2748
11927
26.2751
11988
26.2755
12022
26.2758
12257
26.2761
12245
26.2765
12070
26.2768
12080
26.2771
12022
26.2775
12126
26.2778
12158
26.2782
12158
26.2785
12187
26.2788
12163
26.2792
12112
26.2795
12128
26.2798
12041
26.2802
12124
26.2805
12114
26.2808
12143
26.2812
12193
26.2815
12110
26.2818
12208
26.2822
12248
26.2825
12046
26.2828
11965
26.2832
12329
26.2835
12328
26.2839
12093
26.2842
12238
26.2845
12092
26.2849
12131
26.2852
12191
26.2855
12103
26.2859
12230
26.2862
12301
26.2865
12313
26.2869
12375
26.2872
12155
26.2875
12258
26.2879
12191
26.2882
12207
26.2885
12395
26.2889
12139
26.2892
12196
26.2896
12372
26.2899
12465
26.2902
12264
26.2906
12207
26.2909
12380
26.2912
12408
26.2916
12490
26.2919
12474
26.2922
12528
26.2926
12529
26.2929
12549
26.2932
12540
26.2936
12475
26.2939
12677
26.2942
12365
26.2946
12288
26.2949
12354
26.2953
12219
26.2956
12281
26.2959
12235
26.2963
12391
26.2966
12290
26.2969
12347
26.2973
12322
26.2976
12329
26.2979
12399
26.2983
12425
26.2986
12521
26.2989
12748
26.2993
12857
26.2996
12865
26.3006
12806
26.3021
12719
26.3035
12534
26.305
12384
26.3065
12244
26.3079
12202
26.3094
12037
26.3109
12037
26.3124
11862
26.3138
11895
26.3153
11962
26.3168
12005
26.3183
11968
26.3197
11946
26.3212
12072
26.3227
11957
26.3241
12078
26.3256
12040
26.3271
11998
26.3286
12099
26.33
12118
26.3315
12010
26.333
11969
26.3345
11972
26.3359
12066
26.3374
12152
26.3389
12219
26.3403
12359
26.3418
12235
26.3433
12552
26.3448
12530
26.3462
12579
26.3477
12592
26.3492
12692
26.3506
12915
26.3521
12827
26.3536
12888
26.3551
12880
26.3565
13169
26.358
13033
26.3595
12862
26.361
12944
26.3624
12821
26.3639
12733
26.3654
12697
26.3668
12590
26.3683
12409
26.3698
12270
26.3713
12044
26.3727
12102
26.3742
12068
26.3757
11731
26.3772
11798
26.3786
11795
26.3801
11476
26.3816
11447
26.383
11207
26.3845
10915
26.386
10897
26.3875
10956
26.3889
10890
26.3904
10589
26.3919
10369
26.3933
10270
26.3948
10113
26.3963
10088
26.3978
9908
26.3992
9640
26.4007
9670
26.4022
9596
26.4037
9674
26.4051
9531
26.4066
9474
26.4081
9651
26.4095
9486
26.411
9508
26.4125
9655
26.414
9882
26.4154
10034
26.4169
10476
26.4184
10971
26.4199
12121
26.4213
14059
26.4228
16896
26.4243
21173
26.4257
26754
26.4272
32532
26.4287
36297
26.4302
36176
26.4316
31992
26.4331
25717
26.4346
19764
26.436
15221
26.4375
12096
26.439
10096
26.4405
8771
26.4419
8285
26.4434
7918
26.4449
7786
26.4464
7711
26.4478
7611
26.4493
7618
26.4508
7621
26.4522
7547
26.4537
7532
26.4552
7532
26.4567
7467
26.4581
7572
26.4596
7574
26.4611
7449
26.4626
7493
26.464
7412
26.4655
7491
26.467
7483
26.4684
7472
26.4699
7477
26.4714
7564
26.4729
7563
26.4743
7485
26.4758
7511
26.4753
7418
26.4734
7513
26.4714
7500
26.4694
7522
26.4674
7532
26.4654
7560
26.4635
7615
26.4615
7497
26.4595
7762
26.4575
7660
26.4556
7573
26.4536
7530
26.4516
7500
26.4496
7422
26.4476
7468
26.4457
7540
26.4437
7483
26.4417
7602
26.4397
7520
26.4377
7603
26.4358
7618
26.4338
7531
26.4318
7613
26.4298
7511
26.4278
7477
26.4259
7546
26.4239
7565
26.4219
7592
26.4199
7555
26.4179
7715
26.416
7682
26.414
7765
26.412
7612
26.41
7568
26.4081
7664
26.4061
7809
26.4041
7838
26.4021
7756
26.4001
7728
26.3982
7858
26.3962
7649
26.3942
7631
26.3922
7741
26.3902
7775
26.3883
7693
26.3863
7667
26.3843
7739
26.3823
7613
26.3803
7680
26.3784
7734
26.3764
7684
26.3744
7726
26.3724
7747
26.3704
7693
26.3685
7710
26.3665
7656
26.3645
7727
26.3625
7824
26.3606
7828
26.3586
7788
26.3566
7921
26.3546
7820
26.3526
7669
26.3507
7737
26.3487
7757
26.3467
7539
26.3447
7570
26.3427
7700
26.3408
7808
26.3388
7867
26.3368
7817
26.3348
7847
26.3328
7725
26.3309
7790
26.3289
7878
26.3269
7885
26.3249
7622
26.323
7742
26.321
7811
26.319
7821
26.3165
7813
26.3135
7887
26.3106
7901
26.3076
7813
26.3047
7853
26.3017
7799
26.2988
7896
26.2958
7873
26.2929
7806
26.2899
7904
26.2869
7739
26.284
7945
26.281
7947
26.2781
7828
26.2751
7902
26.2722
7739
26.2692
7821
26.2663
7891
26.2633
7722
26.2604
7859
26.2574
7776
26.2545
7837
26.2515
7984
26.2486
7993
26.2456
8100
26.2427
8081
26.2397
8061
26.2368
7941
26.2338
7964
26.2309
7965
26.2279
8015
26.225
8088
26.222
8060
26.2191
8037
26.2161
8126
26.2132
8114
26.2102
8134
26.2072
8065
26.2043
8009
26.2013
7994
26.1984
8032
26.1954
8082
26.1925
8150
26.1895
8079
26.1866
8097
26.1836
7894
26.1807
7868
26.1777
7940
26.1748
8058
26.1718
8089
26.1689
8059
26.1659
8006
26.163
7999
26.16
7970
26.1571
8030
26.1541
7910
26.1512
7980
26.1482
8123
26.1453
8178
26.1423
8115
26.1394
8168
26.1364
8072
26.1335
8070
26.1305
8096
26.1275
8180
26.1246
8158
26.1216
8212
26.1187
8316
26.1157
8256
26.1128
8239
26.1098
8342
26.1069
8396
26.1039
8408
26.101
8429
26.098
8423
26.0951
8398
26.0921
8333
26.0892
8222
26.0862
8159
26.0833
8193
26.0803
8205
26.0774
8196
26.0744
8163
26.0715
8216
26.0685
8268
26.0656
8159
26.0626
8070
26.0597
8290
26.0567
8260
26.0538
8301
26.0508
8130
26.0478
8205
26.0449
8274
26.0419
8266
26.039
8339
26.036
8400
26.0331
8414
26.0301
8321
26.0272
8225
26.0242
8213
26.0213
8201
26.0183
8192
26.0154
8345
26.0125
8102
26.0095
8004
26.0066
8229
26.0037
8433
26.0007
8367
25.9978
8334
25.9948
8306
25.9919
8340
25.989
8393
25.986
8268
25.9831
8285
25.9801
8337
25.9772
8165
25.9743
8147
25.9713
8411
25.9684
8207
25.9654
8255
25.9625
8234
25.9596
8337
25.9566
8340
25.9537
8374
25.9507
8418
25.9478
8351
25.9449
8445
25.9419
8332
25.939
8334
25.936
8400
25.9331
8338
25.9302
8349
25.9272
8456
25.9243
8365
25.9214
8255
25.9184
8355
25.9155
8504
25.9125
8499
25.9096
8446
25.9067
8426
25.9037
8525
25.9008
8600
25.8978
8604
25.8949
8482
25.892
8562
25.889
8530
25.8861
8721
25.8831
8763
25.8802
8763
25.8773
8982
25.8743
9046
25.8714
9112
25.8684
9094
25.8655
9129
25.8626
9131
25.8596
8975
25.8567
8797
25.8538
8619
25.8508
8517
25.8479
8562
25.8449
8538
25.842
8440
25.8391
8542
25.8361
8508
25.8332
8512
25.8302
8451
25.8273
8441
25.8244
8561
25.8214
8552
25.8185
8522
25.8155
8564
25.8126
8715
25.8097
8701
25.8067
8561
25.8038
8564
25.8008
8609
25.7979
8571
25.795
8729
25.792
8851
25.7891
8680
25.7909
8628
25.7963
8694
25.8018
8769
25.8073
8590
25.8128
8713
25.8183
8592
25.8237
8710
25.8292
8665
25.8347
8737
25.8402
8753
25.8457
8567
25.8511
8734
25.8566
8760
25.8621
8705
25.8676
8776
25.8731
8831
25.8785
8869
25.884
8670
25.8895
8694
25.895
8850
25.9004
8823
25.9059
8830
25.9114
8756
25.9169
8823
25.9224
8841
25.9278
8744
25.9333
8780
25.9388
8820
25.9443
8737
25.9498
8954
25.9552
8947
25.9607
8839
25.9662
8904
25.9717
8961
25.9772
8817
25.9826
9031
25.9881
8868
25.9936
8730
25.9991
8944
26.0046
9009
26.01
8856
26.0155
9019
26.021
8927
26.0265
8919
26.0319
8906
26.0374
8895
26.0429
8901
26.0484
8812
26.0539
8834
26.0593
8980
26.0648
8829
26.0703
8955
26.0758
8936
26.0813
8907
26.0867
9171
26.0922
9149
26.0977
8980
26.1032
8988
26.1087
9075
26.1141
9026
26.1196
9008
26.1251
9253
26.1306
9129
26.1361
9204
26.1415
9235
26.147
9237
26.1525
9487
26.158
9562
26.1635
9623
26.1689
9753
26.1744
9595
26.1799
9522
26.1854
9507
26.1908
9555
26.1963
9689
26.2018
9885
26.2073
10096
26.2128
10061
26.2182
9909
26.2237
9608
26.2292
9382
26.2347
9189
26.2402
9288
26.2456
9198
26.2511
9082
26.2566
9119
26.2621
9219
26.2676
9101
26.273
9253
26.2785
9247
26.284
9125
26.2895
9243
26.295
9428
26.3004
9336
26.3059
9349
26.3114
9315
26.3169
9329
26.3223
9157
26.3278
9125
26.3333
9277
26.3388
9161
26.3443
9195
26.3497
8999
26.3552
9101
26.3607
9250
26.3662
9208
26.3717
9110
26.3771
9081
26.3826
9041
26.3881
9050
26.3936
9186
26.3991
9071
26.4045
9164
26.41
8973
26.4155
9106
26.421
9263
26.4265
9227
26.4319
9195
26.4374
9182
26.4429
9158
26.4484
9119
26.4539
9121
26.4593
9295
26.4648
9314
26.4703
9425
26.4758
9443
26.4812
9388
26.4867
9513
26.4922
9546
26.4977
9558
26.5032
9640
26.5086
9634
26.5141
9675
26.5196
9876
26.5251
9790
26.5306
9887
26.536
9963
26.5415
9779
26.547
9947
26.5525
10145
26.558
9992
26.5634
10051
26.5689
10138
26.5744
10079
26.5799
10081
26.5854
10304
26.5908
10367
26.5963
10367
26.6018
10068
26.6073
10119
26.6127
10222
26.6182
10198
26.6237
10290
26.6292
10325
26.6347
10364
26.6401
10274
26.6456
10455
26.6511
10512
26.6566
10302
26.6621
10042
26.6675
9680
26.673
9267
26.6785
8952
26.684
8466
26.6895
8173
26.6949
8070
26.7004
7752
26.7059
7718
26.7114
7425
26.7169
7225
26.7223
6971
26.7278
6689
26.7333
6529
26.7388
6436
26.7443
6153
26.7497
6001
26.7552
5834
26.7607
5772
26.7662
5616
26.7716
5579
26.7768
5445
26.7816
5458
26.7864
5510
26.7913
5499
26.7961
5595
26.8009
5605
26.8058
5658
26.8106
5802
26.8154
6092
26.8203
6426
26.8251
6866
26.8299
7523
26.8348
8435
26.8396
9455
26.8444
10556
26.8493
11615
26.8541
13453
26.8589
16653
26.8638
21262
26.8686
25465
26.8734
29403
26.8783
33341
26.8831
37916
26.8879
40487
26.8928
36168
26.8976
26487
26.9024
15827
26.9073
7291
26.9121
3681
26.9169
2650
26.9218
2358
26.9266
2209
26.9314
2110
26.9363
1976
26.9411
1855
26.9459
1907
26.9507
1847
26.9556
1740
26.9604
1709
26.9652
1732
26.9701
1755
26.9749
1735
26.9797
1765
26.9846
1776
26.9894
1760
26.9942
1726
26.9991
1721
27.0039
1797
27.0087
1757
27.0136
1842
27.0184
1842
27.0232
1802
27.0281
1837
27.0329
1800
27.0377
1810
27.0426
1748
27.0474
1730
27.0522
1728
27.0571
1766
27.0619
1642
27.0667
1773
27.0716
1714
27.0764
1698
27.0812
1679
27.0861
1721
27.0909
1730
27.0957
1715
27.1006
1663
27.1054
1703
27.1102
1672
27.1151
1741
27.1199
1715
27.1247
1678
27.1296
1664
27.1344
1727
27.1392
1687
27.1441
1723
27.1489
1759
27.1537
1741
27.1586
1735
27.1634
1760
27.1682
1750
27.1731
1706
27.1779
1732
27.1827
1681
27.1876
1728
27.1924
1685
27.1972
1672
27.2021
1680
27.2069
1677
27.2117
1705
27.2166
1710
27.2214
1698
27.2262
1719
27.2311
1711
27.2359
1726
27.2407
1710
27.2456
1716
27.2504
1659
27.2552
1784
27.2579
1703
27.2589
1717
27.26
1716
27.261
1757
27.262
1782
27.263
1705
27.264
1758
27.265
1712
27.2661
1720
27.2671
1666
27.2681
1710
27.2691
1697
27.2701
1701
27.2711
1691
27.2722
1751
27.2732
1723
27.2742
1672
27.2752
1701
27.2762
1706
27.2772
1673
27.2783
1713
27.2793
1849
27.2803
1744
27.2813
1778
27.2823
1878
27.2833
1931
27.2844
1956
27.2854
1978
27.2864
1930
27.2874
1949
27.2884
1996
27.2894
1904
27.2905
1771
27.2915
1764
27.2925
1741
27.2935
1749
27.2945
1783
27.2955
1731
27.2966
1711
27.2976
1742
27.2986
1740
27.2996
1662
27.3006
1692
27.3016
1683
27.3027
1728
27.3037
1730
27.3047
1702
27.3057
1706
27.3067
1756
27.3077
1703
27.3088
1709
27.3098
1752
27.3108
1727
27.3118
1709
27.3128
1718
27.3138
1667
27.3149
1705
27.3159
1671
27.3169
1639
27.3179
1688
27.3189
1731
27.3199
1724
27.321
1686
27.322
1721
27.323
1720
27.324
1696
27.325
1673
27.326
1678
27.3271
1714
27.3281
1681
27.3291
1723
27.3301
1689
27.3311
1707
27.3321
1689
27.3332
1659
27.3342
1636
27.3352
1644
27.3362
1628
27.3372
1682
27.3382
1751
27.3393
1671
27.3403
1649
27.3413
1674
27.3423
1714
27.3433
1620
27.3443
1676
27.3454
1657
27.3464
1758
27.3474
1805
27.3484
1765
27.3494
1886
27.3504
1934
27.3515
1976
27.3525
1941
27.3535
1914
27.3545
1895
27.3555
1815
27.3565
1739
27.3576
1792
27.3586
1713
27.3596
1761
27.3606
1753
27.3616
1709
27.3626
1707
27.3637
1707
27.3647
1704
27.3657
1685
27.3667
1714
27.3677
1782
27.3687
1772
27.3698
1806
27.3708
1815
27.3718
1732
27.3728
1654
27.3738
1794
27.3748
1730
27.3759
1685
27.3769
1694
27.3779
1670
27.3789
1677
27.3785
1716
27.3771
1703
27.3756
1684
27.3741
1667
27.3726
1742
27.3711
1713
27.3696
1672
27.3682
1723
27.3667
1680
27.3652
1661
27.3637
1672
27.3622
1703
27.3608
1665
27.3593
1617
27.3578
1721
27.3563
1733
27.3548
1670
27.3534
1725
27.3519
1692
27.3504
1660
27.3489
1637
27.3474
1700
27.346
1707
27.3445
1693
27.343
1677
27.3415
1695
27.34
1715
27.3386
1641
27.3371
1670
27.3356
1725
27.3341
1797
27.3326
1871
27.3312
1875
27.3297
2022
27.3282
2099
27.3267
2199
27.3252
2164
27.3238
2038
27.3223
1910
27.3208
1808
27.3193
1711
27.3178
1654
27.3164
1616
27.3149
1641
27.3134
1617
27.3119
1631
27.3104
1611
27.309
1586
27.3075
1639
27.306
1601
27.3045
1602
27.303
1660
27.3016
1665
27.3001
1651
27.2986
1610
27.2971
1712
27.2956
1701
27.2942
1756
27.2927
1733
27.2912
1755
27.2897
1884
27.2882
1897
27.2867
2002
27.2853
2059
27.2838
2071
27.2823
2026
27.2808
2055
27.2793
2016
27.2779
1965
27.2764
1788
27.2749
1752
27.2734
1723
27.2719
1622
27.2705
1611
27.269
1598
27.2675
1644
27.266
1595
27.2645
1600
27.2631
1637
27.2616
1657
27.2601
1613
27.2586
1602
27.2571
1599
27.2557
1596
27.2542
1547
27.2527
1629
27.2512
1612
27.2497
1611
27.2483
1625
27.2468
1627
27.2453
1615
27.2438
1600
27.2423
1555
27.2409
1595
27.2394
1640
27.2379
1663
27.2364
1675
27.2349
1651
27.2335
1681
27.232
1611
27.2305
1593
27.229
1630
27.2275
1654
27.2261
1634
27.2246
1699
27.2231
1743
27.2216
1687
27.2201
1697
27.2187
1671
27.2172
1691
27.2157
1651
27.2142
1553
27.2197
1652
27.2307
1661
27.2417
1601
27.2528
1564
27.2638
1573
27.2748
1603
27.2858
1673
27.2968
1636
27.3078
1588
27.3188
1643
27.3298
1682
27.3409
1616
27.3519
1593
27.3629
1601
27.3739
1657
27.3849
1635
27.3959
1557
27.4069
1628
27.4179
1610
27.4289
1614
27.44
1596
27.451
1620
27.462
1638
27.473
1587
27.484
1598
27.495
1582
27.506
1504
27.517
1558
27.5281
1564
27.5391
1584
27.5501
1524
27.5611
1564
27.5721
1599
27.5831
1583
27.5941
1591
27.6051
1517
27.6161
1537
27.6272
1542
27.6382
1534
27.6492
1607
27.6602
1497
27.6712
1568
27.6822
1566
27.6932
1546
27.7042
1527
27.7153
1515
27.7263
1574
27.7373
1618
27.7483
1590
27.7593
1624
27.7703
1732
27.7813
1845
27.7923
1911
27.8034
1923
27.8144
1983
27.8254
1926
27.8364
1879
27.8474
1796
27.8584
1756
27.8694
1704
27.8804
1653
27.8914
1555
27.9025
1472
27.9135
1466
27.9245
1492
27.9355
1506
27.9465
1486
27.9575
1487
27.9685
1494
27.9795
1521
27.9906
1532
28.0016
1566
28.0126
1571
28.0236
1527
28.0346
1526
28.0456
1550
28.0566
1601
28.0676
1629
28.0786
1617
28.0897
1617
28.1007
1629
28.1117
1564
28.1227
1465
28.1337
1508
28.1447
1485
28.1557
1411
28.1667
1411
28.1778
1393
28.1888
1391
28.1998
1358
28.2108
1341
28.2218
1329
28.2328
1365
28.2438
1311
28.2548
1317
28.2658
1399
28.2769
1302
28.2879
1340
28.2989
1318
28.3099
1385
28.3209
1363
28.3319
1377
28.3429
1392
28.3539
1383
28.365
1417
28.376
1425
28.387
1324
28.398
1404
28.409
1423
28.42
1373
28.431
1439
28.442
1363
28.453
1290
28.4641
1315
28.4751
1327
28.4861
1352
28.4971
1371
28.5081
1296
28.5191
1315
28.5301
1317
28.5411
1300
28.5522
1304
28.5632
1353
28.5742
1305
28.5852
1332
28.5962
1321
28.6072
1364
28.6182
1386
28.6292
1412
28.6402
1292
28.6513
1277
28.6623
1200
28.6733
1215
28.6843
1206
28.6953
1178
28.7063
1211
28.7173
1200
28.7283
1180
28.7394
1218
28.7504
1203
28.7614
1180
28.7724
1160
28.7834
1181
28.7944
1221
28.8054
1204
28.8164
1249
28.8274
1309
28.8385
1375
28.8495
1390
28.8605
1391
28.8715
1348
28.8825
1293
28.8935
1319
28.9045
1269
28.9155
1271
28.9266
1222
28.9376
1220
28.9486
1123
28.9596
1083
28.9706
1106
28.9816
1050
28.9926
1051
29.0036
1017
29.0146
1053
29.0257
979
29.0367
1012
29.0477
1047
29.0587
1021
29.0697
1048
29.0807
1050
29.0917
1130
29.1027
1101
29.1138
1126
29.1248
1110
29.1358
1076
29.1468
1019
29.1578
999
29.1688
957
29.1798
884
29.1908
842
29.2018
873
29.2129
798
29.2239
759
29.2349
833
29.2459
780
29.2569
747
29.2679
788
29.2789
773
29.2899
752
29.301
728
29.312
742
29.323
790
29.334
736
29.345
751
29.356
745
29.367
760
29.378
818
29.389
828
29.4001
811
29.4111
886
29.4221
951
29.4331
966
29.4441
1027
29.4551
1097
29.4661
1166
29.4771
1253
29.4882
1318
29.4992
1355
29.504
1450
29.504
1456
29.504
1360
29.504
1295
29.504
1208
29.504
1010
29.504
959
29.504
919
29.504
900
29.504
904
29.504
839
29.504
842
29.504
865
29.504
910
29.504
910
29.504
843
29.504
955
29.504
876
29.504
935
29.504
907
29.504
909
29.504
909
29.504
876
29.504
848
29.504
813
29.504
829
29.504
781
29.504
778
29.504
727
29.504
699
29.504
678
29.504
681
29.504
643
29.504
645
29.504
650
29.504
591
29.504
592
29.504
589
29.504
536
29.504
525
29.504
550
29.504
515
29.504
446
29.504
400
29.504
381
29.504
365
29.504
287
29.504
275
29.504
233
29.504
198
29.504
161
29.504
158
29.504
102
29.504
end of experiment
